onset	duration	trial_type	timestamp_lsl	marker	response_accuracy	difficulty_range	outcome	istutorial	dropped_samples	marker_stream
0.172192	0.004000	dropped_samples	1690.679497	Dropped 1 samples	n/a	n/a	n/a	n/a	1	UoHDataOffsetStream
3.149618	0.012000	dropped_samples	1693.656923	Dropped 3 samples	n/a	n/a	n/a	n/a	3	UoHDataOffsetStream
3.341363	0.012000	dropped_samples	1693.848668	Dropped 3 samples	n/a	n/a	n/a	n/a	3	UoHDataOffsetStream
3.653697	0.012000	dropped_samples	1694.161002	Dropped 3 samples	n/a	n/a	n/a	n/a	3	UoHDataOffsetStream
4.881788	0.012000	dropped_samples	1695.389093	Dropped 3 samples	n/a	n/a	n/a	n/a	3	UoHDataOffsetStream
7.681974	0.008000	dropped_samples	1698.189279	Dropped 2 samples	n/a	n/a	n/a	n/a	2	UoHDataOffsetStream
8.185473	0.004000	dropped_samples	1698.692778	Dropped 1 samples	n/a	n/a	n/a	n/a	1	UoHDataOffsetStream
8.907520	0.008000	dropped_samples	1699.414825	Dropped 2 samples	n/a	n/a	n/a	n/a	2	UoHDataOffsetStream
11.587890	0.008000	dropped_samples	1702.095195	Dropped 2 samples	n/a	n/a	n/a	n/a	2	UoHDataOffsetStream
11.591587	0.012000	dropped_samples	1702.098892	Dropped 3 samples	n/a	n/a	n/a	n/a	3	UoHDataOffsetStream
11.728662	0.024000	dropped_samples	1702.235967	Dropped 6 samples	n/a	n/a	n/a	n/a	6	UoHDataOffsetStream
11.763996	0.028000	dropped_samples	1702.271301	Dropped 7 samples	n/a	n/a	n/a	n/a	7	UoHDataOffsetStream
21.077382	0.012000	dropped_samples	1711.584686	Dropped 3 samples	n/a	n/a	n/a	n/a	3	UoHDataOffsetStream
21.314994	0.012000	dropped_samples	1711.822299	Dropped 3 samples	n/a	n/a	n/a	n/a	3	UoHDataOffsetStream
22.305881	0.012000	dropped_samples	1712.813185	Dropped 3 samples	n/a	n/a	n/a	n/a	3	UoHDataOffsetStream
22.362190	0.012000	dropped_samples	1712.869495	Dropped 3 samples	n/a	n/a	n/a	n/a	3	UoHDataOffsetStream
22.363950	0.012000	dropped_samples	1712.871254	Dropped 3 samples	n/a	n/a	n/a	n/a	3	UoHDataOffsetStream
22.393941	0.076000	dropped_samples	1712.901246	Dropped 19 samples	n/a	n/a	n/a	n/a	19	UoHDataOffsetStream
22.516000	0.004000	dropped_samples	1713.023305	Dropped 1 samples	n/a	n/a	n/a	n/a	1	UoHDataOffsetStream
22.993855	0.012000	dropped_samples	1713.501159	Dropped 3 samples	n/a	n/a	n/a	n/a	3	UoHDataOffsetStream
23.018924	0.012000	dropped_samples	1713.526229	Dropped 3 samples	n/a	n/a	n/a	n/a	3	UoHDataOffsetStream
23.197027	0.004000	dropped_samples	1713.704332	Dropped 1 samples	n/a	n/a	n/a	n/a	1	UoHDataOffsetStream
25.201502	0.004000	dropped_samples	1715.708807	Dropped 1 samples	n/a	n/a	n/a	n/a	1	UoHDataOffsetStream
26.402717	0.012000	dropped_samples	1716.910022	Dropped 3 samples	n/a	n/a	n/a	n/a	3	UoHDataOffsetStream
28.829505	0.012000	dropped_samples	1719.336810	Dropped 3 samples	n/a	n/a	n/a	n/a	3	UoHDataOffsetStream
29.462161	0.012000	dropped_samples	1719.969466	Dropped 3 samples	n/a	n/a	n/a	n/a	3	UoHDataOffsetStream
31.563828	0.012000	dropped_samples	1722.071133	Dropped 3 samples	n/a	n/a	n/a	n/a	3	UoHDataOffsetStream
32.476976	0.004000	dropped_samples	1722.984281	Dropped 1 samples	n/a	n/a	n/a	n/a	1	UoHDataOffsetStream
32.816118	0.004000	dropped_samples	1723.323423	Dropped 1 samples	n/a	n/a	n/a	n/a	1	UoHDataOffsetStream
33.722105	0.004000	dropped_samples	1724.229410	Dropped 1 samples	n/a	n/a	n/a	n/a	1	UoHDataOffsetStream
34.757258	0.004000	dropped_samples	1725.264563	Dropped 1 samples	n/a	n/a	n/a	n/a	1	UoHDataOffsetStream
35.933997	0.028000	dropped_samples	1726.441302	Dropped 7 samples	n/a	n/a	n/a	n/a	7	UoHDataOffsetStream
36.793412	0.012000	dropped_samples	1727.300717	Dropped 3 samples	n/a	n/a	n/a	n/a	3	UoHDataOffsetStream
36.939891	0.012000	dropped_samples	1727.447196	Dropped 3 samples	n/a	n/a	n/a	n/a	3	UoHDataOffsetStream
37.635051	0.004000	dropped_samples	1728.142355	Dropped 1 samples	n/a	n/a	n/a	n/a	1	UoHDataOffsetStream
40.212573	0.008000	dropped_samples	1730.719877	Dropped 2 samples	n/a	n/a	n/a	n/a	2	UoHDataOffsetStream
44.308063	0.004000	dropped_samples	1734.815368	Dropped 1 samples	n/a	n/a	n/a	n/a	1	UoHDataOffsetStream
45.914502	0.004000	dropped_samples	1736.421807	Dropped 1 samples	n/a	n/a	n/a	n/a	1	UoHDataOffsetStream
46.036586	0.004000	dropped_samples	1736.543891	Dropped 1 samples	n/a	n/a	n/a	n/a	1	UoHDataOffsetStream
51.842270	0.004000	dropped_samples	1742.349574	Dropped 1 samples	n/a	n/a	n/a	n/a	1	UoHDataOffsetStream
55.445795	0.004000	dropped_samples	1745.953099	Dropped 1 samples	n/a	n/a	n/a	n/a	1	UoHDataOffsetStream
55.777824	0.004000	dropped_samples	1746.285129	Dropped 1 samples	n/a	n/a	n/a	n/a	1	UoHDataOffsetStream
55.997543	0.004000	dropped_samples	1746.504848	Dropped 1 samples	n/a	n/a	n/a	n/a	1	UoHDataOffsetStream
57.989749	0.004000	dropped_samples	1748.497054	Dropped 1 samples	n/a	n/a	n/a	n/a	1	UoHDataOffsetStream
59.186024	0.012000	dropped_samples	1749.693329	Dropped 3 samples	n/a	n/a	n/a	n/a	3	UoHDataOffsetStream
59.474101	0.008000	dropped_samples	1749.981406	Dropped 2 samples	n/a	n/a	n/a	n/a	2	UoHDataOffsetStream
62.116127	0.008000	dropped_samples	1752.623431	Dropped 2 samples	n/a	n/a	n/a	n/a	2	UoHDataOffsetStream
63.458524	0.016000	dropped_samples	1753.965828	Dropped 4 samples	n/a	n/a	n/a	n/a	4	UoHDataOffsetStream
63.985842	0.012000	dropped_samples	1754.493147	Dropped 3 samples	n/a	n/a	n/a	n/a	3	UoHDataOffsetStream
64.322801	0.004000	dropped_samples	1754.830106	Dropped 1 samples	n/a	n/a	n/a	n/a	1	UoHDataOffsetStream
66.023909	0.000000	started_tutorial_artihmetic	1756.531214	Started tutorial artihmetic	n/a	n/a	n/a	n/a	n/a	arithmetic-Markers
66.964427	0.012000	dropped_samples	1757.471732	Dropped 3 samples	n/a	n/a	n/a	n/a	3	UoHDataOffsetStream
70.348224	0.012000	dropped_samples	1760.855528	Dropped 3 samples	n/a	n/a	n/a	n/a	3	UoHDataOffsetStream
72.003403	0.004000	dropped_samples	1762.510708	Dropped 1 samples	n/a	n/a	n/a	n/a	1	UoHDataOffsetStream
74.786670	0.004000	dropped_samples	1765.293975	Dropped 1 samples	n/a	n/a	n/a	n/a	1	UoHDataOffsetStream
77.931176	0.004000	dropped_samples	1768.438480	Dropped 1 samples	n/a	n/a	n/a	n/a	1	UoHDataOffsetStream
82.338852	0.012000	dropped_samples	1772.846157	Dropped 3 samples	n/a	n/a	n/a	n/a	3	UoHDataOffsetStream
82.374598	0.004000	dropped_samples	1772.881903	Dropped 1 samples	n/a	n/a	n/a	n/a	1	UoHDataOffsetStream
83.043536	0.008000	dropped_samples	1773.550841	Dropped 2 samples	n/a	n/a	n/a	n/a	2	UoHDataOffsetStream
83.453705	0.008000	dropped_samples	1773.961010	Dropped 2 samples	n/a	n/a	n/a	n/a	2	UoHDataOffsetStream
85.954920	0.004000	dropped_samples	1776.462225	Dropped 1 samples	n/a	n/a	n/a	n/a	1	UoHDataOffsetStream
88.736776	0.008000	dropped_samples	1779.244081	Dropped 2 samples	n/a	n/a	n/a	n/a	2	UoHDataOffsetStream
88.780835	0.008000	dropped_samples	1779.288140	Dropped 2 samples	n/a	n/a	n/a	n/a	2	UoHDataOffsetStream
92.839362	0.008000	dropped_samples	1783.346667	Dropped 2 samples	n/a	n/a	n/a	n/a	2	UoHDataOffsetStream
93.531907	0.004000	dropped_samples	1784.039212	Dropped 1 samples	n/a	n/a	n/a	n/a	1	UoHDataOffsetStream
95.885376	0.004000	dropped_samples	1786.392681	Dropped 1 samples	n/a	n/a	n/a	n/a	1	UoHDataOffsetStream
96.051407	0.008000	dropped_samples	1786.558712	Dropped 2 samples	n/a	n/a	n/a	n/a	2	UoHDataOffsetStream
96.197844	0.008000	dropped_samples	1786.705149	Dropped 2 samples	n/a	n/a	n/a	n/a	2	UoHDataOffsetStream
96.651969	0.008000	dropped_samples	1787.159274	Dropped 2 samples	n/a	n/a	n/a	n/a	2	UoHDataOffsetStream
98.068021	0.012000	dropped_samples	1788.575326	Dropped 3 samples	n/a	n/a	n/a	n/a	3	UoHDataOffsetStream
104.523059	0.012000	dropped_samples	1795.030364	Dropped 3 samples	n/a	n/a	n/a	n/a	3	UoHDataOffsetStream
104.957874	0.008000	dropped_samples	1795.465179	Dropped 2 samples	n/a	n/a	n/a	n/a	2	UoHDataOffsetStream
106.178362	0.008000	dropped_samples	1796.685667	Dropped 2 samples	n/a	n/a	n/a	n/a	2	UoHDataOffsetStream
106.422560	0.004000	dropped_samples	1796.929865	Dropped 1 samples	n/a	n/a	n/a	n/a	1	UoHDataOffsetStream
106.803361	0.008000	dropped_samples	1797.310666	Dropped 2 samples	n/a	n/a	n/a	n/a	2	UoHDataOffsetStream
109.034810	0.004000	dropped_samples	1799.542115	Dropped 1 samples	n/a	n/a	n/a	n/a	1	UoHDataOffsetStream
109.610961	0.008000	dropped_samples	1800.118266	Dropped 2 samples	n/a	n/a	n/a	n/a	2	UoHDataOffsetStream
115.587536	0.004000	dropped_samples	1806.094841	Dropped 1 samples	n/a	n/a	n/a	n/a	1	UoHDataOffsetStream
120.485078	0.008000	dropped_samples	1810.992383	Dropped 2 samples	n/a	n/a	n/a	n/a	2	UoHDataOffsetStream
123.151100	0.004000	dropped_samples	1813.658405	Dropped 1 samples	n/a	n/a	n/a	n/a	1	UoHDataOffsetStream
124.708714	0.012000	dropped_samples	1815.216019	Dropped 3 samples	n/a	n/a	n/a	n/a	3	UoHDataOffsetStream
128.907958	0.004000	dropped_samples	1819.415262	Dropped 1 samples	n/a	n/a	n/a	n/a	1	UoHDataOffsetStream
130.453705	0.004000	dropped_samples	1820.961009	Dropped 1 samples	n/a	n/a	n/a	n/a	1	UoHDataOffsetStream
132.035050	0.000000	2_4_3_3	1822.542355	2.4-3.3	n/a	n/a	n/a	n/a	n/a	arithmetic-Markers
134.547561	0.004000	dropped_samples	1825.054866	Dropped 1 samples	n/a	n/a	n/a	n/a	1	UoHDataOffsetStream
136.974487	0.008000	dropped_samples	1827.481792	Dropped 2 samples	n/a	n/a	n/a	n/a	2	UoHDataOffsetStream
137.618903	0.004000	dropped_samples	1828.126207	Dropped 1 samples	n/a	n/a	n/a	n/a	1	UoHDataOffsetStream
139.398938	6.000000	2.4-3.3	1829.906243	2.4-3.3 Correct tutorial	1	2.4-3.3	Correct	true	n/a	arithmetic-Markers
145.299562	0.004000	dropped_samples	1835.806867	Dropped 1 samples	n/a	n/a	n/a	n/a	1	UoHDataOffsetStream
145.913797	0.000000	3_3_4_2	1836.421102	3.3-4.2	n/a	n/a	n/a	n/a	n/a	arithmetic-Markers
146.285885	0.004000	dropped_samples	1836.793190	Dropped 1 samples	n/a	n/a	n/a	n/a	1	UoHDataOffsetStream
147.242921	0.004000	dropped_samples	1837.750226	Dropped 1 samples	n/a	n/a	n/a	n/a	1	UoHDataOffsetStream
148.421826	0.012000	dropped_samples	1838.929130	Dropped 3 samples	n/a	n/a	n/a	n/a	3	UoHDataOffsetStream
148.468500	0.016000	dropped_samples	1838.975805	Dropped 4 samples	n/a	n/a	n/a	n/a	4	UoHDataOffsetStream
149.596469	0.012000	dropped_samples	1840.103774	Dropped 3 samples	n/a	n/a	n/a	n/a	3	UoHDataOffsetStream
150.214743	6.000000	3.3-4.2	1840.722048	3.3-4.2 Correct tutorial	1	3.3-4.2	Correct	true	n/a	arithmetic-Markers
152.379625	0.004000	dropped_samples	1842.886930	Dropped 1 samples	n/a	n/a	n/a	n/a	1	UoHDataOffsetStream
153.390424	0.012000	dropped_samples	1843.897729	Dropped 3 samples	n/a	n/a	n/a	n/a	3	UoHDataOffsetStream
153.580875	0.008000	dropped_samples	1844.088180	Dropped 2 samples	n/a	n/a	n/a	n/a	2	UoHDataOffsetStream
155.787898	0.004000	dropped_samples	1846.295203	Dropped 1 samples	n/a	n/a	n/a	n/a	1	UoHDataOffsetStream
156.707902	0.000000	0_6_1_5	1847.215207	0.6-1.5	n/a	n/a	n/a	n/a	n/a	arithmetic-Markers
156.847424	0.008000	dropped_samples	1847.354728	Dropped 2 samples	n/a	n/a	n/a	n/a	2	UoHDataOffsetStream
158.622681	6.000000	0.6-1.5	1849.129986	0.6-1.5 Correct tutorial	1	0.6-1.5	Correct	true	n/a	arithmetic-Markers
163.830024	0.008000	dropped_samples	1854.337329	Dropped 2 samples	n/a	n/a	n/a	n/a	2	UoHDataOffsetStream
165.123819	0.004000	dropped_samples	1855.631123	Dropped 1 samples	n/a	n/a	n/a	n/a	1	UoHDataOffsetStream
165.130036	0.000000	4_2_5_1	1855.637341	4.2-5.1	n/a	n/a	n/a	n/a	n/a	arithmetic-Markers
168.751756	0.004000	dropped_samples	1859.259061	Dropped 1 samples	n/a	n/a	n/a	n/a	1	UoHDataOffsetStream
171.246455	6.000000	4.2-5.1	1861.753760	4.2-5.1 Wrong tutorial	0	4.2-5.1	Wrong	true	n/a	arithmetic-Markers
172.950982	0.008000	dropped_samples	1863.458287	Dropped 2 samples	n/a	n/a	n/a	n/a	2	UoHDataOffsetStream
175.275252	0.004000	dropped_samples	1865.782556	Dropped 1 samples	n/a	n/a	n/a	n/a	1	UoHDataOffsetStream
175.470545	0.004000	dropped_samples	1865.977850	Dropped 1 samples	n/a	n/a	n/a	n/a	1	UoHDataOffsetStream
176.574083	0.004000	dropped_samples	1867.081388	Dropped 1 samples	n/a	n/a	n/a	n/a	1	UoHDataOffsetStream
177.749410	0.000000	1_5_2_4	1868.256715	1.5-2.4	n/a	n/a	n/a	n/a	n/a	arithmetic-Markers
178.659039	0.012000	dropped_samples	1869.166343	Dropped 3 samples	n/a	n/a	n/a	n/a	3	UoHDataOffsetStream
179.284082	0.012000	dropped_samples	1869.791387	Dropped 3 samples	n/a	n/a	n/a	n/a	3	UoHDataOffsetStream
180.902957	6.000000	1.5-2.4	1871.410261	1.5-2.4 Correct tutorial	1	1.5-2.4	Correct	true	n/a	arithmetic-Markers
182.667881	0.004000	dropped_samples	1873.175186	Dropped 1 samples	n/a	n/a	n/a	n/a	1	UoHDataOffsetStream
185.046026	0.004000	dropped_samples	1875.553331	Dropped 1 samples	n/a	n/a	n/a	n/a	1	UoHDataOffsetStream
185.285028	0.008000	dropped_samples	1875.792333	Dropped 2 samples	n/a	n/a	n/a	n/a	2	UoHDataOffsetStream
186.076067	0.008000	dropped_samples	1876.583372	Dropped 2 samples	n/a	n/a	n/a	n/a	2	UoHDataOffsetStream
187.420532	0.000000	6_0_6_9	1877.927836	6.0-6.9	n/a	n/a	n/a	n/a	n/a	arithmetic-Markers
187.687373	0.012000	dropped_samples	1878.194677	Dropped 3 samples	n/a	n/a	n/a	n/a	3	UoHDataOffsetStream
187.855672	0.004000	dropped_samples	1878.362976	Dropped 1 samples	n/a	n/a	n/a	n/a	1	UoHDataOffsetStream
192.151930	0.004000	dropped_samples	1882.659235	Dropped 1 samples	n/a	n/a	n/a	n/a	1	UoHDataOffsetStream
192.702083	0.004000	dropped_samples	1883.209388	Dropped 1 samples	n/a	n/a	n/a	n/a	1	UoHDataOffsetStream
192.941349	0.012000	dropped_samples	1883.448654	Dropped 3 samples	n/a	n/a	n/a	n/a	3	UoHDataOffsetStream
193.541912	0.008000	dropped_samples	1884.049217	Dropped 2 samples	n/a	n/a	n/a	n/a	2	UoHDataOffsetStream
195.675747	0.012000	dropped_samples	1886.183052	Dropped 3 samples	n/a	n/a	n/a	n/a	3	UoHDataOffsetStream
195.870996	0.012000	dropped_samples	1886.378300	Dropped 3 samples	n/a	n/a	n/a	n/a	3	UoHDataOffsetStream
196.998966	0.008000	dropped_samples	1887.506271	Dropped 2 samples	n/a	n/a	n/a	n/a	2	UoHDataOffsetStream
197.882887	0.012000	dropped_samples	1888.390192	Dropped 3 samples	n/a	n/a	n/a	n/a	3	UoHDataOffsetStream
197.887695	0.008000	dropped_samples	1888.395000	Dropped 2 samples	n/a	n/a	n/a	n/a	2	UoHDataOffsetStream
198.629817	0.004000	dropped_samples	1889.137122	Dropped 1 samples	n/a	n/a	n/a	n/a	1	UoHDataOffsetStream
201.627880	0.008000	dropped_samples	1892.135185	Dropped 2 samples	n/a	n/a	n/a	n/a	2	UoHDataOffsetStream
203.717689	0.004000	dropped_samples	1894.224994	Dropped 1 samples	n/a	n/a	n/a	n/a	1	UoHDataOffsetStream
203.883710	0.008000	dropped_samples	1894.391014	Dropped 2 samples	n/a	n/a	n/a	n/a	2	UoHDataOffsetStream
204.582727	6.000000	6.0-6.9	1895.090032	6.0-6.9 Wrong tutorial	0	6.0-6.9	Wrong	true	n/a	arithmetic-Markers
204.992115	0.004000	dropped_samples	1895.499420	Dropped 1 samples	n/a	n/a	n/a	n/a	1	UoHDataOffsetStream
206.525474	0.012000	dropped_samples	1897.032778	Dropped 3 samples	n/a	n/a	n/a	n/a	3	UoHDataOffsetStream
206.959999	0.008000	dropped_samples	1897.467304	Dropped 2 samples	n/a	n/a	n/a	n/a	2	UoHDataOffsetStream
207.824165	0.004000	dropped_samples	1898.331470	Dropped 1 samples	n/a	n/a	n/a	n/a	1	UoHDataOffsetStream
208.517556	0.004000	dropped_samples	1899.024861	Dropped 1 samples	n/a	n/a	n/a	n/a	1	UoHDataOffsetStream
209.982395	0.008000	dropped_samples	1900.489700	Dropped 2 samples	n/a	n/a	n/a	n/a	2	UoHDataOffsetStream
211.099453	0.000000	5_1_6_0	1901.606758	5.1-6.0	n/a	n/a	n/a	n/a	n/a	arithmetic-Markers
211.950162	0.008000	dropped_samples	1902.457467	Dropped 2 samples	n/a	n/a	n/a	n/a	2	UoHDataOffsetStream
212.550772	0.012000	dropped_samples	1903.058077	Dropped 3 samples	n/a	n/a	n/a	n/a	3	UoHDataOffsetStream
212.980425	0.004000	dropped_samples	1903.487730	Dropped 1 samples	n/a	n/a	n/a	n/a	1	UoHDataOffsetStream
214.708997	0.012000	dropped_samples	1905.216302	Dropped 3 samples	n/a	n/a	n/a	n/a	3	UoHDataOffsetStream
215.333935	0.012000	dropped_samples	1905.841240	Dropped 3 samples	n/a	n/a	n/a	n/a	3	UoHDataOffsetStream
216.247061	0.012000	dropped_samples	1906.754366	Dropped 3 samples	n/a	n/a	n/a	n/a	3	UoHDataOffsetStream
218.356458	0.004000	dropped_samples	1908.863763	Dropped 1 samples	n/a	n/a	n/a	n/a	1	UoHDataOffsetStream
219.508858	0.004000	dropped_samples	1910.016163	Dropped 1 samples	n/a	n/a	n/a	n/a	1	UoHDataOffsetStream
220.036158	0.004000	dropped_samples	1910.543463	Dropped 1 samples	n/a	n/a	n/a	n/a	1	UoHDataOffsetStream
221.286145	0.004000	dropped_samples	1911.793450	Dropped 1 samples	n/a	n/a	n/a	n/a	1	UoHDataOffsetStream
225.443324	0.008000	dropped_samples	1915.950629	Dropped 2 samples	n/a	n/a	n/a	n/a	2	UoHDataOffsetStream
225.485405	0.008000	dropped_samples	1915.992710	Dropped 2 samples	n/a	n/a	n/a	n/a	2	UoHDataOffsetStream
225.797889	0.008000	dropped_samples	1916.305193	Dropped 2 samples	n/a	n/a	n/a	n/a	2	UoHDataOffsetStream
226.183689	0.012000	dropped_samples	1916.690994	Dropped 3 samples	n/a	n/a	n/a	n/a	3	UoHDataOffsetStream
227.936692	0.012000	dropped_samples	1918.443997	Dropped 3 samples	n/a	n/a	n/a	n/a	3	UoHDataOffsetStream
229.567628	0.004000	dropped_samples	1920.074933	Dropped 1 samples	n/a	n/a	n/a	n/a	1	UoHDataOffsetStream
232.558665	6.000000	5.1-6.0	1923.065969	5.1-6.0 Wrong tutorial	0	5.1-6.0	Wrong	true	n/a	arithmetic-Markers
233.062262	0.000000	finished_tutorial_arithmetic	1923.569567	Finished tutorial Arithmetic	n/a	n/a	n/a	n/a	n/a	arithmetic-Markers
235.807624	0.008000	dropped_samples	1926.314929	Dropped 2 samples	n/a	n/a	n/a	n/a	2	UoHDataOffsetStream
237.272411	0.000000	started_arithmetic	1927.779716	Started arithmetic	n/a	n/a	n/a	n/a	n/a	arithmetic-Markers
239.045006	0.004000	dropped_samples	1929.552311	Dropped 1 samples	n/a	n/a	n/a	n/a	1	UoHDataOffsetStream
239.621275	0.008000	dropped_samples	1930.128580	Dropped 2 samples	n/a	n/a	n/a	n/a	2	UoHDataOffsetStream
242.165141	0.012000	dropped_samples	1932.672446	Dropped 3 samples	n/a	n/a	n/a	n/a	3	UoHDataOffsetStream
243.053796	0.004000	dropped_samples	1933.561101	Dropped 1 samples	n/a	n/a	n/a	n/a	1	UoHDataOffsetStream
244.181754	0.004000	dropped_samples	1934.689059	Dropped 1 samples	n/a	n/a	n/a	n/a	1	UoHDataOffsetStream
244.284254	0.000000	0_6_1_5	1934.791559	0.6-1.5	n/a	n/a	n/a	n/a	n/a	arithmetic-Markers
245.725663	0.008000	dropped_samples	1936.232968	Dropped 2 samples	n/a	n/a	n/a	n/a	2	UoHDataOffsetStream
245.768803	0.012000	dropped_samples	1936.276108	Dropped 3 samples	n/a	n/a	n/a	n/a	3	UoHDataOffsetStream
246.076312	0.004000	dropped_samples	1936.583617	Dropped 1 samples	n/a	n/a	n/a	n/a	1	UoHDataOffsetStream
246.710522	6.000000	0.6-1.5	1937.217826	0.6-1.5 Correct	1	0.6-1.5	Correct	false	n/a	arithmetic-Markers
248.717887	0.004000	dropped_samples	1939.225192	Dropped 1 samples	n/a	n/a	n/a	n/a	1	UoHDataOffsetStream
249.456925	0.012000	dropped_samples	1939.964230	Dropped 3 samples	n/a	n/a	n/a	n/a	3	UoHDataOffsetStream
252.414144	0.008000	dropped_samples	1942.921449	Dropped 2 samples	n/a	n/a	n/a	n/a	2	UoHDataOffsetStream
252.511866	0.004000	dropped_samples	1943.019171	Dropped 1 samples	n/a	n/a	n/a	n/a	1	UoHDataOffsetStream
253.230492	0.000000	6_0_6_9	1943.737797	6.0-6.9	n/a	n/a	n/a	n/a	n/a	arithmetic-Markers
254.552855	0.012000	dropped_samples	1945.060160	Dropped 3 samples	n/a	n/a	n/a	n/a	3	UoHDataOffsetStream
258.703231	0.004000	dropped_samples	1949.210536	Dropped 1 samples	n/a	n/a	n/a	n/a	1	UoHDataOffsetStream
258.893665	0.004000	dropped_samples	1949.400970	Dropped 1 samples	n/a	n/a	n/a	n/a	1	UoHDataOffsetStream
259.904412	0.004000	dropped_samples	1950.411717	Dropped 1 samples	n/a	n/a	n/a	n/a	1	UoHDataOffsetStream
262.758380	6.000000	6.0-6.9	1953.265684	6.0-6.9 Wrong	0	6.0-6.9	Wrong	false	n/a	arithmetic-Markers
263.263866	0.004000	dropped_samples	1953.771171	Dropped 1 samples	n/a	n/a	n/a	n/a	1	UoHDataOffsetStream
264.821531	0.004000	dropped_samples	1955.328836	Dropped 1 samples	n/a	n/a	n/a	n/a	1	UoHDataOffsetStream
267.794046	0.008000	dropped_samples	1958.301351	Dropped 2 samples	n/a	n/a	n/a	n/a	2	UoHDataOffsetStream
269.270088	0.000000	3_3_4_2	1959.777392	3.3-4.2	n/a	n/a	n/a	n/a	n/a	arithmetic-Markers
269.817432	0.004000	dropped_samples	1960.324737	Dropped 1 samples	n/a	n/a	n/a	n/a	1	UoHDataOffsetStream
270.197395	0.004000	dropped_samples	1960.704700	Dropped 1 samples	n/a	n/a	n/a	n/a	1	UoHDataOffsetStream
273.053887	0.004000	dropped_samples	1963.561191	Dropped 1 samples	n/a	n/a	n/a	n/a	1	UoHDataOffsetStream
273.230266	6.000000	3.3-4.2	1963.737571	3.3-4.2 Wrong	0	3.3-4.2	Wrong	false	n/a	arithmetic-Markers
274.108589	0.012000	dropped_samples	1964.615893	Dropped 3 samples	n/a	n/a	n/a	n/a	3	UoHDataOffsetStream
277.209142	0.004000	dropped_samples	1967.716447	Dropped 1 samples	n/a	n/a	n/a	n/a	1	UoHDataOffsetStream
278.312701	0.012000	dropped_samples	1968.820006	Dropped 3 samples	n/a	n/a	n/a	n/a	3	UoHDataOffsetStream
279.030429	0.012000	dropped_samples	1969.537734	Dropped 3 samples	n/a	n/a	n/a	n/a	3	UoHDataOffsetStream
279.730237	0.000000	0_6_1_5	1970.237542	0.6-1.5	n/a	n/a	n/a	n/a	n/a	arithmetic-Markers
281.630390	6.000000	0.6-1.5	1972.137695	0.6-1.5 Correct	1	0.6-1.5	Correct	false	n/a	arithmetic-Markers
284.624580	0.024000	dropped_samples	1975.131885	Dropped 6 samples	n/a	n/a	n/a	n/a	6	UoHDataOffsetStream
287.072472	0.004000	dropped_samples	1977.579777	Dropped 1 samples	n/a	n/a	n/a	n/a	1	UoHDataOffsetStream
288.133781	0.000000	2_4_3_3	1978.641086	2.4-3.3	n/a	n/a	n/a	n/a	n/a	arithmetic-Markers
288.366407	0.004000	dropped_samples	1978.873712	Dropped 1 samples	n/a	n/a	n/a	n/a	1	UoHDataOffsetStream
288.605679	0.004000	dropped_samples	1979.112984	Dropped 1 samples	n/a	n/a	n/a	n/a	1	UoHDataOffsetStream
288.869394	0.008000	dropped_samples	1979.376699	Dropped 2 samples	n/a	n/a	n/a	n/a	2	UoHDataOffsetStream
289.469952	0.008000	dropped_samples	1979.977257	Dropped 2 samples	n/a	n/a	n/a	n/a	2	UoHDataOffsetStream
291.100768	0.012000	dropped_samples	1981.608073	Dropped 3 samples	n/a	n/a	n/a	n/a	3	UoHDataOffsetStream
292.078107	6.000000	2.4-3.3	1982.585411	2.4-3.3 Correct	1	2.4-3.3	Correct	false	n/a	arithmetic-Markers
293.381060	0.012000	dropped_samples	1983.888365	Dropped 3 samples	n/a	n/a	n/a	n/a	3	UoHDataOffsetStream
295.422115	0.008000	dropped_samples	1985.929420	Dropped 2 samples	n/a	n/a	n/a	n/a	2	UoHDataOffsetStream
295.856879	0.004000	dropped_samples	1986.364183	Dropped 1 samples	n/a	n/a	n/a	n/a	1	UoHDataOffsetStream
296.047195	0.008000	dropped_samples	1986.554500	Dropped 2 samples	n/a	n/a	n/a	n/a	2	UoHDataOffsetStream
297.164904	0.012000	dropped_samples	1987.672209	Dropped 3 samples	n/a	n/a	n/a	n/a	3	UoHDataOffsetStream
298.400651	0.008000	dropped_samples	1988.907955	Dropped 2 samples	n/a	n/a	n/a	n/a	2	UoHDataOffsetStream
298.583745	0.000000	4_2_5_1	1989.091050	4.2-5.1	n/a	n/a	n/a	n/a	n/a	arithmetic-Markers
299.909415	0.004000	dropped_samples	1990.416719	Dropped 1 samples	n/a	n/a	n/a	n/a	1	UoHDataOffsetStream
301.257105	0.012000	dropped_samples	1991.764410	Dropped 3 samples	n/a	n/a	n/a	n/a	3	UoHDataOffsetStream
302.121470	0.004000	dropped_samples	1992.628775	Dropped 1 samples	n/a	n/a	n/a	n/a	1	UoHDataOffsetStream
302.442529	0.004000	dropped_samples	1992.949834	Dropped 1 samples	n/a	n/a	n/a	n/a	1	UoHDataOffsetStream
302.551027	0.008000	dropped_samples	1993.058332	Dropped 2 samples	n/a	n/a	n/a	n/a	2	UoHDataOffsetStream
304.709231	0.004000	dropped_samples	1995.216536	Dropped 1 samples	n/a	n/a	n/a	n/a	1	UoHDataOffsetStream
305.812814	0.004000	dropped_samples	1996.320119	Dropped 1 samples	n/a	n/a	n/a	n/a	1	UoHDataOffsetStream
307.804959	0.004000	dropped_samples	1998.312263	Dropped 1 samples	n/a	n/a	n/a	n/a	1	UoHDataOffsetStream
308.932870	0.008000	dropped_samples	1999.440174	Dropped 2 samples	n/a	n/a	n/a	n/a	2	UoHDataOffsetStream
311.384104	0.004000	dropped_samples	2001.891409	Dropped 1 samples	n/a	n/a	n/a	n/a	1	UoHDataOffsetStream
312.077380	0.004000	dropped_samples	2002.584685	Dropped 1 samples	n/a	n/a	n/a	n/a	1	UoHDataOffsetStream
313.063717	0.004000	dropped_samples	2003.571022	Dropped 1 samples	n/a	n/a	n/a	n/a	1	UoHDataOffsetStream
313.790432	6.000000	4.2-5.1	2004.297737	4.2-5.1 Wrong	0	4.2-5.1	Wrong	false	n/a	arithmetic-Markers
315.319645	0.004000	dropped_samples	2005.826950	Dropped 1 samples	n/a	n/a	n/a	n/a	1	UoHDataOffsetStream
317.385051	0.004000	dropped_samples	2007.892355	Dropped 1 samples	n/a	n/a	n/a	n/a	1	UoHDataOffsetStream
318.869444	0.004000	dropped_samples	2009.376749	Dropped 1 samples	n/a	n/a	n/a	n/a	1	UoHDataOffsetStream
320.291959	0.000000	6_0_6_9	2010.799264	6.0-6.9	n/a	n/a	n/a	n/a	n/a	arithmetic-Markers
320.768884	0.004000	dropped_samples	2011.276189	Dropped 1 samples	n/a	n/a	n/a	n/a	1	UoHDataOffsetStream
323.479598	0.008000	dropped_samples	2013.986903	Dropped 2 samples	n/a	n/a	n/a	n/a	2	UoHDataOffsetStream
327.824551	0.004000	dropped_samples	2018.331856	Dropped 1 samples	n/a	n/a	n/a	n/a	1	UoHDataOffsetStream
329.094082	0.004000	dropped_samples	2019.601387	Dropped 1 samples	n/a	n/a	n/a	n/a	1	UoHDataOffsetStream
331.159537	0.004000	dropped_samples	2021.666842	Dropped 1 samples	n/a	n/a	n/a	n/a	1	UoHDataOffsetStream
331.877324	0.004000	dropped_samples	2022.384629	Dropped 1 samples	n/a	n/a	n/a	n/a	1	UoHDataOffsetStream
332.741563	0.004000	dropped_samples	2023.248868	Dropped 1 samples	n/a	n/a	n/a	n/a	1	UoHDataOffsetStream
334.445657	0.004000	dropped_samples	2024.952962	Dropped 1 samples	n/a	n/a	n/a	n/a	1	UoHDataOffsetStream
334.977901	0.004000	dropped_samples	2025.485206	Dropped 1 samples	n/a	n/a	n/a	n/a	1	UoHDataOffsetStream
335.334157	6.000000	6.0-6.9	2025.841462	6.0-6.9 Wrong	0	6.0-6.9	Wrong	false	n/a	arithmetic-Markers
335.622433	0.004000	dropped_samples	2026.129738	Dropped 1 samples	n/a	n/a	n/a	n/a	1	UoHDataOffsetStream
335.983759	0.008000	dropped_samples	2026.491064	Dropped 2 samples	n/a	n/a	n/a	n/a	2	UoHDataOffsetStream
337.209319	0.008000	dropped_samples	2027.716623	Dropped 2 samples	n/a	n/a	n/a	n/a	2	UoHDataOffsetStream
339.177153	0.016000	dropped_samples	2029.684458	Dropped 4 samples	n/a	n/a	n/a	n/a	4	UoHDataOffsetStream
341.838846	0.000000	3_3_4_2	2032.346151	3.3-4.2	n/a	n/a	n/a	n/a	n/a	arithmetic-Markers
342.512086	0.004000	dropped_samples	2033.019391	Dropped 1 samples	n/a	n/a	n/a	n/a	1	UoHDataOffsetStream
342.678100	0.008000	dropped_samples	2033.185405	Dropped 2 samples	n/a	n/a	n/a	n/a	2	UoHDataOffsetStream
343.757331	0.008000	dropped_samples	2034.264635	Dropped 2 samples	n/a	n/a	n/a	n/a	2	UoHDataOffsetStream
343.886279	6.000000	3.3-4.2	2034.393584	3.3-4.2 Wrong	0	3.3-4.2	Wrong	false	n/a	arithmetic-Markers
344.743621	0.004000	dropped_samples	2035.250926	Dropped 1 samples	n/a	n/a	n/a	n/a	1	UoHDataOffsetStream
345.583418	0.012000	dropped_samples	2036.090723	Dropped 3 samples	n/a	n/a	n/a	n/a	3	UoHDataOffsetStream
347.145908	0.008000	dropped_samples	2037.653213	Dropped 2 samples	n/a	n/a	n/a	n/a	2	UoHDataOffsetStream
347.648819	0.012000	dropped_samples	2038.156124	Dropped 3 samples	n/a	n/a	n/a	n/a	3	UoHDataOffsetStream
350.404053	0.000000	1_5_2_4	2040.911357	1.5-2.4	n/a	n/a	n/a	n/a	n/a	arithmetic-Markers
350.456581	0.004000	dropped_samples	2040.963886	Dropped 1 samples	n/a	n/a	n/a	n/a	1	UoHDataOffsetStream
353.382252	6.000000	1.5-2.4	2043.889557	1.5-2.4 Correct	1	1.5-2.4	Correct	false	n/a	arithmetic-Markers
353.386146	0.008000	dropped_samples	2043.893451	Dropped 2 samples	n/a	n/a	n/a	n/a	2	UoHDataOffsetStream
355.397855	0.008000	dropped_samples	2045.905160	Dropped 2 samples	n/a	n/a	n/a	n/a	2	UoHDataOffsetStream
355.734796	0.008000	dropped_samples	2046.242101	Dropped 2 samples	n/a	n/a	n/a	n/a	2	UoHDataOffsetStream
357.272902	0.004000	dropped_samples	2047.780207	Dropped 1 samples	n/a	n/a	n/a	n/a	1	UoHDataOffsetStream
357.966221	0.004000	dropped_samples	2048.473525	Dropped 1 samples	n/a	n/a	n/a	n/a	1	UoHDataOffsetStream
358.185978	0.012000	dropped_samples	2048.693283	Dropped 3 samples	n/a	n/a	n/a	n/a	3	UoHDataOffsetStream
359.895576	0.000000	2_4_3_3	2050.402880	2.4-3.3	n/a	n/a	n/a	n/a	n/a	arithmetic-Markers
362.912562	0.004000	dropped_samples	2053.419867	Dropped 1 samples	n/a	n/a	n/a	n/a	1	UoHDataOffsetStream
364.430762	6.000000	2.4-3.3	2054.938067	2.4-3.3 Correct	1	2.4-3.3	Correct	false	n/a	arithmetic-Markers
364.929224	0.020000	dropped_samples	2055.436529	Dropped 5 samples	n/a	n/a	n/a	n/a	5	UoHDataOffsetStream
368.000661	0.008000	dropped_samples	2058.507966	Dropped 2 samples	n/a	n/a	n/a	n/a	2	UoHDataOffsetStream
368.938181	0.012000	dropped_samples	2059.445486	Dropped 3 samples	n/a	n/a	n/a	n/a	3	UoHDataOffsetStream
370.256335	0.012000	dropped_samples	2060.763640	Dropped 3 samples	n/a	n/a	n/a	n/a	3	UoHDataOffsetStream
370.948881	0.000000	0_6_1_5	2061.456186	0.6-1.5	n/a	n/a	n/a	n/a	n/a	arithmetic-Markers
371.237781	0.004000	dropped_samples	2061.745086	Dropped 1 samples	n/a	n/a	n/a	n/a	1	UoHDataOffsetStream
372.750800	6.000000	0.6-1.5	2063.258105	0.6-1.5 Correct	1	0.6-1.5	Correct	false	n/a	arithmetic-Markers
373.542470	0.004000	dropped_samples	2064.049775	Dropped 1 samples	n/a	n/a	n/a	n/a	1	UoHDataOffsetStream
375.393034	0.012000	dropped_samples	2065.900338	Dropped 3 samples	n/a	n/a	n/a	n/a	3	UoHDataOffsetStream
376.926282	0.012000	dropped_samples	2067.433587	Dropped 3 samples	n/a	n/a	n/a	n/a	3	UoHDataOffsetStream
377.551296	0.008000	dropped_samples	2068.058601	Dropped 2 samples	n/a	n/a	n/a	n/a	2	UoHDataOffsetStream
379.206613	0.004000	dropped_samples	2069.713917	Dropped 1 samples	n/a	n/a	n/a	n/a	1	UoHDataOffsetStream
379.238205	0.000000	0_6_1_5	2069.745510	0.6-1.5	n/a	n/a	n/a	n/a	n/a	arithmetic-Markers
379.543447	0.012000	dropped_samples	2070.050752	Dropped 3 samples	n/a	n/a	n/a	n/a	3	UoHDataOffsetStream
379.714386	0.004000	dropped_samples	2070.221691	Dropped 1 samples	n/a	n/a	n/a	n/a	1	UoHDataOffsetStream
381.462405	0.004000	dropped_samples	2071.969709	Dropped 1 samples	n/a	n/a	n/a	n/a	1	UoHDataOffsetStream
382.038573	6.000000	0.6-1.5	2072.545878	0.6-1.5 Correct	1	0.6-1.5	Correct	false	n/a	arithmetic-Markers
384.158128	0.004000	dropped_samples	2074.665433	Dropped 1 samples	n/a	n/a	n/a	n/a	1	UoHDataOffsetStream
384.582685	0.012000	dropped_samples	2075.089990	Dropped 3 samples	n/a	n/a	n/a	n/a	3	UoHDataOffsetStream
387.441575	0.008000	dropped_samples	2077.948880	Dropped 2 samples	n/a	n/a	n/a	n/a	2	UoHDataOffsetStream
387.897980	0.008000	dropped_samples	2078.405285	Dropped 2 samples	n/a	n/a	n/a	n/a	2	UoHDataOffsetStream
388.449773	0.004000	dropped_samples	2078.957077	Dropped 1 samples	n/a	n/a	n/a	n/a	1	UoHDataOffsetStream
388.554572	0.000000	3_3_4_2	2079.061877	3.3-4.2	n/a	n/a	n/a	n/a	n/a	arithmetic-Markers
393.798197	6.000000	3.3-4.2	2084.305501	3.3-4.2 Correct	1	3.3-4.2	Correct	false	n/a	arithmetic-Markers
394.714533	0.008000	dropped_samples	2085.221838	Dropped 2 samples	n/a	n/a	n/a	n/a	2	UoHDataOffsetStream
395.358896	0.012000	dropped_samples	2085.866201	Dropped 3 samples	n/a	n/a	n/a	n/a	3	UoHDataOffsetStream
396.149963	0.008000	dropped_samples	2086.657268	Dropped 2 samples	n/a	n/a	n/a	n/a	2	UoHDataOffsetStream
398.479026	0.008000	dropped_samples	2088.986331	Dropped 2 samples	n/a	n/a	n/a	n/a	2	UoHDataOffsetStream
400.158776	0.012000	dropped_samples	2090.666081	Dropped 3 samples	n/a	n/a	n/a	n/a	3	UoHDataOffsetStream
400.286665	0.000000	6_0_6_9	2090.793970	6.0-6.9	n/a	n/a	n/a	n/a	n/a	arithmetic-Markers
403.254456	0.008000	dropped_samples	2093.761760	Dropped 2 samples	n/a	n/a	n/a	n/a	2	UoHDataOffsetStream
403.984313	0.012000	dropped_samples	2094.491618	Dropped 3 samples	n/a	n/a	n/a	n/a	3	UoHDataOffsetStream
405.344296	0.004000	dropped_samples	2095.851601	Dropped 1 samples	n/a	n/a	n/a	n/a	1	UoHDataOffsetStream
407.734235	6.000000	6.0-6.9	2098.241540	6.0-6.9 Wrong	0	6.0-6.9	Wrong	false	n/a	arithmetic-Markers
408.137375	0.004000	dropped_samples	2098.644680	Dropped 1 samples	n/a	n/a	n/a	n/a	1	UoHDataOffsetStream
408.513298	0.004000	dropped_samples	2099.020603	Dropped 1 samples	n/a	n/a	n/a	n/a	1	UoHDataOffsetStream
408.850176	0.008000	dropped_samples	2099.357481	Dropped 2 samples	n/a	n/a	n/a	n/a	2	UoHDataOffsetStream
409.089479	0.012000	dropped_samples	2099.596784	Dropped 3 samples	n/a	n/a	n/a	n/a	3	UoHDataOffsetStream
411.511301	0.004000	dropped_samples	2102.018606	Dropped 1 samples	n/a	n/a	n/a	n/a	1	UoHDataOffsetStream
414.236608	0.000000	3_3_4_2	2104.743912	3.3-4.2	n/a	n/a	n/a	n/a	n/a	arithmetic-Markers
414.558212	0.004000	dropped_samples	2105.065517	Dropped 1 samples	n/a	n/a	n/a	n/a	1	UoHDataOffsetStream
415.422521	0.004000	dropped_samples	2105.929826	Dropped 1 samples	n/a	n/a	n/a	n/a	1	UoHDataOffsetStream
415.910836	0.008000	dropped_samples	2106.418140	Dropped 2 samples	n/a	n/a	n/a	n/a	2	UoHDataOffsetStream
418.401035	0.012000	dropped_samples	2108.908339	Dropped 3 samples	n/a	n/a	n/a	n/a	3	UoHDataOffsetStream
421.739016	0.008000	dropped_samples	2112.246321	Dropped 2 samples	n/a	n/a	n/a	n/a	2	UoHDataOffsetStream
423.825954	0.012000	dropped_samples	2114.333258	Dropped 3 samples	n/a	n/a	n/a	n/a	3	UoHDataOffsetStream
425.578773	0.008000	dropped_samples	2116.086078	Dropped 2 samples	n/a	n/a	n/a	n/a	2	UoHDataOffsetStream
426.830652	6.000000	3.3-4.2	2117.337957	3.3-4.2 Correct	1	3.3-4.2	Correct	false	n/a	arithmetic-Markers
427.576198	0.004000	dropped_samples	2118.083503	Dropped 1 samples	n/a	n/a	n/a	n/a	1	UoHDataOffsetStream
428.743006	0.012000	dropped_samples	2119.250310	Dropped 3 samples	n/a	n/a	n/a	n/a	3	UoHDataOffsetStream
430.735044	0.008000	dropped_samples	2121.242349	Dropped 2 samples	n/a	n/a	n/a	n/a	2	UoHDataOffsetStream
431.311200	0.012000	dropped_samples	2121.818505	Dropped 3 samples	n/a	n/a	n/a	n/a	3	UoHDataOffsetStream
431.960638	0.004000	dropped_samples	2122.467942	Dropped 1 samples	n/a	n/a	n/a	n/a	1	UoHDataOffsetStream
432.439251	0.004000	dropped_samples	2122.946555	Dropped 1 samples	n/a	n/a	n/a	n/a	1	UoHDataOffsetStream
432.922560	0.004000	dropped_samples	2123.429864	Dropped 1 samples	n/a	n/a	n/a	n/a	1	UoHDataOffsetStream
433.332875	0.000000	3_3_4_2	2123.840179	3.3-4.2	n/a	n/a	n/a	n/a	n/a	arithmetic-Markers
433.664746	0.004000	dropped_samples	2124.172051	Dropped 1 samples	n/a	n/a	n/a	n/a	1	UoHDataOffsetStream
434.265343	0.012000	dropped_samples	2124.772647	Dropped 3 samples	n/a	n/a	n/a	n/a	3	UoHDataOffsetStream
434.939103	0.004000	dropped_samples	2125.446407	Dropped 1 samples	n/a	n/a	n/a	n/a	1	UoHDataOffsetStream
435.705755	0.008000	dropped_samples	2126.213059	Dropped 2 samples	n/a	n/a	n/a	n/a	2	UoHDataOffsetStream
436.975252	0.004000	dropped_samples	2127.482556	Dropped 1 samples	n/a	n/a	n/a	n/a	1	UoHDataOffsetStream
437.458673	0.008000	dropped_samples	2127.965978	Dropped 2 samples	n/a	n/a	n/a	n/a	2	UoHDataOffsetStream
442.702706	6.000000	3.3-4.2	2133.210011	3.3-4.2 Correct	1	3.3-4.2	Correct	false	n/a	arithmetic-Markers
444.104241	0.008000	dropped_samples	2134.611546	Dropped 2 samples	n/a	n/a	n/a	n/a	2	UoHDataOffsetStream
449.001634	0.012000	dropped_samples	2139.508939	Dropped 3 samples	n/a	n/a	n/a	n/a	3	UoHDataOffsetStream
449.207877	0.000000	5_1_6_0	2139.715182	5.1-6.0	n/a	n/a	n/a	n/a	n/a	arithmetic-Markers
450.344532	0.012000	dropped_samples	2140.851837	Dropped 3 samples	n/a	n/a	n/a	n/a	3	UoHDataOffsetStream
451.760493	0.012000	dropped_samples	2142.267798	Dropped 3 samples	n/a	n/a	n/a	n/a	3	UoHDataOffsetStream
452.483109	0.004000	dropped_samples	2142.990414	Dropped 1 samples	n/a	n/a	n/a	n/a	1	UoHDataOffsetStream
453.249801	0.004000	dropped_samples	2143.757105	Dropped 1 samples	n/a	n/a	n/a	n/a	1	UoHDataOffsetStream
454.929542	0.004000	dropped_samples	2145.436846	Dropped 1 samples	n/a	n/a	n/a	n/a	1	UoHDataOffsetStream
455.168723	0.008000	dropped_samples	2145.676028	Dropped 2 samples	n/a	n/a	n/a	n/a	2	UoHDataOffsetStream
457.112078	0.008000	dropped_samples	2147.619383	Dropped 2 samples	n/a	n/a	n/a	n/a	2	UoHDataOffsetStream
458.750649	6.000000	5.1-6.0	2149.257954	5.1-6.0 Wrong	0	5.1-6.0	Wrong	false	n/a	arithmetic-Markers
460.183343	0.004000	dropped_samples	2150.690648	Dropped 1 samples	n/a	n/a	n/a	n/a	1	UoHDataOffsetStream
462.849391	0.020000	dropped_samples	2153.356696	Dropped 5 samples	n/a	n/a	n/a	n/a	5	UoHDataOffsetStream
464.289815	0.008000	dropped_samples	2154.797120	Dropped 2 samples	n/a	n/a	n/a	n/a	2	UoHDataOffsetStream
464.387447	0.004000	dropped_samples	2154.894752	Dropped 1 samples	n/a	n/a	n/a	n/a	1	UoHDataOffsetStream
465.238800	0.000000	2_4_3_3	2155.746105	2.4-3.3	n/a	n/a	n/a	n/a	n/a	arithmetic-Markers
474.758456	6.000000	2.4-3.3	2165.265761	2.4-3.3 Correct	1	2.4-3.3	Correct	false	n/a	arithmetic-Markers
474.919733	0.004000	dropped_samples	2165.427038	Dropped 1 samples	n/a	n/a	n/a	n/a	1	UoHDataOffsetStream
478.811316	0.004000	dropped_samples	2169.318620	Dropped 1 samples	n/a	n/a	n/a	n/a	1	UoHDataOffsetStream
481.279944	0.000000	6_0_6_9	2171.787249	6.0-6.9	n/a	n/a	n/a	n/a	n/a	arithmetic-Markers
483.059429	0.012000	dropped_samples	2173.566734	Dropped 3 samples	n/a	n/a	n/a	n/a	3	UoHDataOffsetStream
483.323054	0.008000	dropped_samples	2173.830359	Dropped 2 samples	n/a	n/a	n/a	n/a	2	UoHDataOffsetStream
484.138591	0.012000	dropped_samples	2174.645896	Dropped 3 samples	n/a	n/a	n/a	n/a	3	UoHDataOffsetStream
485.793811	0.004000	dropped_samples	2176.301116	Dropped 1 samples	n/a	n/a	n/a	n/a	1	UoHDataOffsetStream
485.947187	0.004000	dropped_samples	2176.454492	Dropped 1 samples	n/a	n/a	n/a	n/a	1	UoHDataOffsetStream
490.305478	0.004000	dropped_samples	2180.812783	Dropped 1 samples	n/a	n/a	n/a	n/a	1	UoHDataOffsetStream
490.544797	0.004000	dropped_samples	2181.052102	Dropped 1 samples	n/a	n/a	n/a	n/a	1	UoHDataOffsetStream
491.384630	0.012000	dropped_samples	2181.891935	Dropped 3 samples	n/a	n/a	n/a	n/a	3	UoHDataOffsetStream
492.950647	6.000000	6.0-6.9	2183.457952	6.0-6.9 Wrong	0	6.0-6.9	Wrong	false	n/a	arithmetic-Markers
495.803548	0.012000	dropped_samples	2186.310853	Dropped 3 samples	n/a	n/a	n/a	n/a	3	UoHDataOffsetStream
495.920805	0.004000	dropped_samples	2186.428110	Dropped 1 samples	n/a	n/a	n/a	n/a	1	UoHDataOffsetStream
496.111182	0.004000	dropped_samples	2186.618486	Dropped 1 samples	n/a	n/a	n/a	n/a	1	UoHDataOffsetStream
496.423726	0.012000	dropped_samples	2186.931031	Dropped 3 samples	n/a	n/a	n/a	n/a	3	UoHDataOffsetStream
497.673716	0.008000	dropped_samples	2188.181021	Dropped 2 samples	n/a	n/a	n/a	n/a	2	UoHDataOffsetStream
498.083880	0.008000	dropped_samples	2188.591185	Dropped 2 samples	n/a	n/a	n/a	n/a	2	UoHDataOffsetStream
498.562364	0.004000	dropped_samples	2189.069669	Dropped 1 samples	n/a	n/a	n/a	n/a	1	UoHDataOffsetStream
499.454253	0.000000	5_1_6_0	2189.961558	5.1-6.0	n/a	n/a	n/a	n/a	n/a	arithmetic-Markers
500.842692	0.008000	dropped_samples	2191.349997	Dropped 2 samples	n/a	n/a	n/a	n/a	2	UoHDataOffsetStream
502.620031	0.012000	dropped_samples	2193.127336	Dropped 3 samples	n/a	n/a	n/a	n/a	3	UoHDataOffsetStream
504.275295	0.004000	dropped_samples	2194.782600	Dropped 1 samples	n/a	n/a	n/a	n/a	1	UoHDataOffsetStream
506.555548	0.012000	dropped_samples	2197.062852	Dropped 3 samples	n/a	n/a	n/a	n/a	3	UoHDataOffsetStream
506.887614	0.004000	dropped_samples	2197.394919	Dropped 1 samples	n/a	n/a	n/a	n/a	1	UoHDataOffsetStream
510.134469	6.000000	5.1-6.0	2200.641774	5.1-6.0 Wrong	0	5.1-6.0	Wrong	false	n/a	arithmetic-Markers
510.442313	0.012000	dropped_samples	2200.949618	Dropped 3 samples	n/a	n/a	n/a	n/a	3	UoHDataOffsetStream
515.266542	0.004000	dropped_samples	2205.773847	Dropped 1 samples	n/a	n/a	n/a	n/a	1	UoHDataOffsetStream
516.642425	0.000000	2_4_3_3	2207.149730	2.4-3.3	n/a	n/a	n/a	n/a	n/a	arithmetic-Markers
518.507978	0.004000	dropped_samples	2209.015283	Dropped 1 samples	n/a	n/a	n/a	n/a	1	UoHDataOffsetStream
518.622481	6.000000	2.4-3.3	2209.129785	2.4-3.3 Correct	1	2.4-3.3	Correct	false	n/a	arithmetic-Markers
521.170316	0.004000	dropped_samples	2211.677620	Dropped 1 samples	n/a	n/a	n/a	n/a	1	UoHDataOffsetStream
523.904276	0.004000	dropped_samples	2214.411581	Dropped 1 samples	n/a	n/a	n/a	n/a	1	UoHDataOffsetStream
524.890640	0.004000	dropped_samples	2215.397945	Dropped 1 samples	n/a	n/a	n/a	n/a	1	UoHDataOffsetStream
525.115892	0.000000	0_6_1_5	2215.623196	0.6-1.5	n/a	n/a	n/a	n/a	n/a	arithmetic-Markers
525.706128	0.004000	dropped_samples	2216.213433	Dropped 1 samples	n/a	n/a	n/a	n/a	1	UoHDataOffsetStream
527.146545	0.004000	dropped_samples	2217.653850	Dropped 1 samples	n/a	n/a	n/a	n/a	1	UoHDataOffsetStream
527.238879	6.000000	0.6-1.5	2217.746184	0.6-1.5 Correct	1	0.6-1.5	Correct	false	n/a	arithmetic-Markers
532.127333	0.012000	dropped_samples	2222.634638	Dropped 3 samples	n/a	n/a	n/a	n/a	3	UoHDataOffsetStream
532.258775	0.004000	dropped_samples	2222.766079	Dropped 1 samples	n/a	n/a	n/a	n/a	1	UoHDataOffsetStream
533.753716	0.000000	0_6_1_5	2224.261021	0.6-1.5	n/a	n/a	n/a	n/a	n/a	arithmetic-Markers
534.944335	0.008000	dropped_samples	2225.451640	Dropped 2 samples	n/a	n/a	n/a	n/a	2	UoHDataOffsetStream
535.830724	6.000000	0.6-1.5	2226.338029	0.6-1.5 Correct	1	0.6-1.5	Correct	false	n/a	arithmetic-Markers
540.369188	0.008000	dropped_samples	2230.876493	Dropped 2 samples	n/a	n/a	n/a	n/a	2	UoHDataOffsetStream
542.350140	0.000000	5_1_6_0	2232.857445	5.1-6.0	n/a	n/a	n/a	n/a	n/a	arithmetic-Markers
549.944977	0.004000	dropped_samples	2240.452281	Dropped 1 samples	n/a	n/a	n/a	n/a	1	UoHDataOffsetStream
550.281505	0.004000	dropped_samples	2240.788810	Dropped 1 samples	n/a	n/a	n/a	n/a	1	UoHDataOffsetStream
551.342135	6.000000	5.1-6.0	2241.849440	5.1-6.0 Wrong	0	5.1-6.0	Wrong	false	n/a	arithmetic-Markers
557.410230	0.008000	dropped_samples	2247.917535	Dropped 2 samples	n/a	n/a	n/a	n/a	2	UoHDataOffsetStream
557.861001	0.000000	0_6_1_5	2248.368306	0.6-1.5	n/a	n/a	n/a	n/a	n/a	arithmetic-Markers
560.118097	6.000000	0.6-1.5	2250.625402	0.6-1.5 Correct	1	0.6-1.5	Correct	false	n/a	arithmetic-Markers
563.264770	0.008000	dropped_samples	2253.772075	Dropped 2 samples	n/a	n/a	n/a	n/a	2	UoHDataOffsetStream
566.482552	0.012000	dropped_samples	2256.989857	Dropped 3 samples	n/a	n/a	n/a	n/a	3	UoHDataOffsetStream
566.615805	0.000000	6_0_6_9	2257.123110	6.0-6.9	n/a	n/a	n/a	n/a	n/a	arithmetic-Markers
567.947350	0.004000	dropped_samples	2258.454655	Dropped 1 samples	n/a	n/a	n/a	n/a	1	UoHDataOffsetStream
568.113541	0.008000	dropped_samples	2258.620846	Dropped 2 samples	n/a	n/a	n/a	n/a	2	UoHDataOffsetStream
571.209088	0.004000	dropped_samples	2261.716393	Dropped 1 samples	n/a	n/a	n/a	n/a	1	UoHDataOffsetStream
571.668159	0.012000	dropped_samples	2262.175464	Dropped 3 samples	n/a	n/a	n/a	n/a	3	UoHDataOffsetStream
573.035294	0.008000	dropped_samples	2263.542599	Dropped 2 samples	n/a	n/a	n/a	n/a	2	UoHDataOffsetStream
573.225732	0.004000	dropped_samples	2263.733037	Dropped 1 samples	n/a	n/a	n/a	n/a	1	UoHDataOffsetStream
574.854313	6.000000	6.0-6.9	2265.361617	6.0-6.9 Wrong	0	6.0-6.9	Wrong	false	n/a	arithmetic-Markers
578.049934	0.008000	dropped_samples	2268.557239	Dropped 2 samples	n/a	n/a	n/a	n/a	2	UoHDataOffsetStream
580.115355	0.004000	dropped_samples	2270.622659	Dropped 1 samples	n/a	n/a	n/a	n/a	1	UoHDataOffsetStream
581.347936	0.000000	0_6_1_5	2271.855240	0.6-1.5	n/a	n/a	n/a	n/a	n/a	arithmetic-Markers
582.814247	6.000000	0.6-1.5	2273.321552	0.6-1.5 Correct	1	0.6-1.5	Correct	false	n/a	arithmetic-Markers
588.396682	0.008000	dropped_samples	2278.903986	Dropped 2 samples	n/a	n/a	n/a	n/a	2	UoHDataOffsetStream
588.587090	0.012000	dropped_samples	2279.094395	Dropped 3 samples	n/a	n/a	n/a	n/a	3	UoHDataOffsetStream
589.315692	0.000000	1_5_2_4	2279.822997	1.5-2.4	n/a	n/a	n/a	n/a	n/a	arithmetic-Markers
590.842910	0.012000	dropped_samples	2281.350215	Dropped 3 samples	n/a	n/a	n/a	n/a	3	UoHDataOffsetStream
591.430223	6.000000	1.5-2.4	2281.937528	1.5-2.4 Correct	1	1.5-2.4	Correct	false	n/a	arithmetic-Markers
591.560749	0.012000	dropped_samples	2282.068054	Dropped 3 samples	n/a	n/a	n/a	n/a	3	UoHDataOffsetStream
592.338911	0.008000	dropped_samples	2282.846216	Dropped 2 samples	n/a	n/a	n/a	n/a	2	UoHDataOffsetStream
592.449427	0.008000	dropped_samples	2282.956731	Dropped 2 samples	n/a	n/a	n/a	n/a	2	UoHDataOffsetStream
592.646249	0.012000	dropped_samples	2283.153553	Dropped 3 samples	n/a	n/a	n/a	n/a	3	UoHDataOffsetStream
594.202338	0.004000	dropped_samples	2284.709643	Dropped 1 samples	n/a	n/a	n/a	n/a	1	UoHDataOffsetStream
595.257100	0.020000	dropped_samples	2285.764405	Dropped 5 samples	n/a	n/a	n/a	n/a	5	UoHDataOffsetStream
595.764862	0.004000	dropped_samples	2286.272167	Dropped 1 samples	n/a	n/a	n/a	n/a	1	UoHDataOffsetStream
596.458404	0.008000	dropped_samples	2286.965708	Dropped 2 samples	n/a	n/a	n/a	n/a	2	UoHDataOffsetStream
597.929488	0.000000	1_5_2_4	2288.436793	1.5-2.4	n/a	n/a	n/a	n/a	n/a	arithmetic-Markers
599.192570	0.008000	dropped_samples	2289.699875	Dropped 2 samples	n/a	n/a	n/a	n/a	2	UoHDataOffsetStream
599.651563	0.012000	dropped_samples	2290.158868	Dropped 3 samples	n/a	n/a	n/a	n/a	3	UoHDataOffsetStream
600.429985	6.000000	1.5-2.4	2290.937290	1.5-2.4 Correct	1	1.5-2.4	Correct	false	n/a	arithmetic-Markers
603.777532	0.004000	dropped_samples	2294.284837	Dropped 1 samples	n/a	n/a	n/a	n/a	1	UoHDataOffsetStream
604.065655	0.008000	dropped_samples	2294.572960	Dropped 2 samples	n/a	n/a	n/a	n/a	2	UoHDataOffsetStream
606.927023	0.000000	3_3_4_2	2297.434328	3.3-4.2	n/a	n/a	n/a	n/a	n/a	arithmetic-Markers
608.123267	0.004000	dropped_samples	2298.630572	Dropped 1 samples	n/a	n/a	n/a	n/a	1	UoHDataOffsetStream
613.909442	0.004000	dropped_samples	2304.416747	Dropped 1 samples	n/a	n/a	n/a	n/a	1	UoHDataOffsetStream
614.363521	0.004000	dropped_samples	2304.870826	Dropped 1 samples	n/a	n/a	n/a	n/a	1	UoHDataOffsetStream
614.817674	0.008000	dropped_samples	2305.324978	Dropped 2 samples	n/a	n/a	n/a	n/a	2	UoHDataOffsetStream
617.171191	0.008000	dropped_samples	2307.678496	Dropped 2 samples	n/a	n/a	n/a	n/a	2	UoHDataOffsetStream
618.934383	6.000000	3.3-4.2	2309.441688	3.3-4.2 Wrong	0	3.3-4.2	Wrong	false	n/a	arithmetic-Markers
620.242434	0.008000	dropped_samples	2310.749738	Dropped 2 samples	n/a	n/a	n/a	n/a	2	UoHDataOffsetStream
622.473950	0.012000	dropped_samples	2312.981255	Dropped 3 samples	n/a	n/a	n/a	n/a	3	UoHDataOffsetStream
625.438739	0.000000	4_2_5_1	2315.946044	4.2-5.1	n/a	n/a	n/a	n/a	n/a	arithmetic-Markers
626.819598	0.012000	dropped_samples	2317.326903	Dropped 3 samples	n/a	n/a	n/a	n/a	3	UoHDataOffsetStream
627.395809	0.004000	dropped_samples	2317.903114	Dropped 1 samples	n/a	n/a	n/a	n/a	1	UoHDataOffsetStream
628.353072	0.008000	dropped_samples	2318.860376	Dropped 2 samples	n/a	n/a	n/a	n/a	2	UoHDataOffsetStream
628.640945	0.008000	dropped_samples	2319.148250	Dropped 2 samples	n/a	n/a	n/a	n/a	2	UoHDataOffsetStream
636.239074	6.000000	4.2-5.1	2326.746379	4.2-5.1 Wrong	0	4.2-5.1	Wrong	false	n/a	arithmetic-Markers
636.578474	0.008000	dropped_samples	2327.085779	Dropped 2 samples	n/a	n/a	n/a	n/a	2	UoHDataOffsetStream
636.609713	0.004000	dropped_samples	2327.117018	Dropped 1 samples	n/a	n/a	n/a	n/a	1	UoHDataOffsetStream
637.571579	0.004000	dropped_samples	2328.078884	Dropped 1 samples	n/a	n/a	n/a	n/a	1	UoHDataOffsetStream
639.153707	0.008000	dropped_samples	2329.661012	Dropped 2 samples	n/a	n/a	n/a	n/a	2	UoHDataOffsetStream
639.226851	0.004000	dropped_samples	2329.734156	Dropped 1 samples	n/a	n/a	n/a	n/a	1	UoHDataOffsetStream
640.262838	0.004000	dropped_samples	2330.770142	Dropped 1 samples	n/a	n/a	n/a	n/a	1	UoHDataOffsetStream
640.716145	0.004000	dropped_samples	2331.223450	Dropped 1 samples	n/a	n/a	n/a	n/a	1	UoHDataOffsetStream
642.738672	0.000000	1_5_2_4	2333.245977	1.5-2.4	n/a	n/a	n/a	n/a	n/a	arithmetic-Markers
643.357765	0.012000	dropped_samples	2333.865070	Dropped 3 samples	n/a	n/a	n/a	n/a	3	UoHDataOffsetStream
644.173229	0.008000	dropped_samples	2334.680534	Dropped 2 samples	n/a	n/a	n/a	n/a	2	UoHDataOffsetStream
644.266028	0.004000	dropped_samples	2334.773333	Dropped 1 samples	n/a	n/a	n/a	n/a	1	UoHDataOffsetStream
644.934457	6.000000	1.5-2.4	2335.441761	1.5-2.4 Correct	1	1.5-2.4	Correct	false	n/a	arithmetic-Markers
651.033588	0.012000	dropped_samples	2341.540893	Dropped 3 samples	n/a	n/a	n/a	n/a	3	UoHDataOffsetStream
651.429858	0.000000	4_2_5_1	2341.937163	4.2-5.1	n/a	n/a	n/a	n/a	n/a	arithmetic-Markers
652.498463	0.004000	dropped_samples	2343.005767	Dropped 1 samples	n/a	n/a	n/a	n/a	1	UoHDataOffsetStream
655.476955	0.004000	dropped_samples	2345.984260	Dropped 1 samples	n/a	n/a	n/a	n/a	1	UoHDataOffsetStream
656.580481	0.012000	dropped_samples	2347.087786	Dropped 3 samples	n/a	n/a	n/a	n/a	3	UoHDataOffsetStream
658.069753	0.004000	dropped_samples	2348.577058	Dropped 1 samples	n/a	n/a	n/a	n/a	1	UoHDataOffsetStream
659.842178	0.004000	dropped_samples	2350.349483	Dropped 1 samples	n/a	n/a	n/a	n/a	1	UoHDataOffsetStream
660.686103	6.000000	4.2-5.1	2351.193407	4.2-5.1 Wrong	0	4.2-5.1	Wrong	false	n/a	arithmetic-Markers
662.434952	0.008000	dropped_samples	2352.942257	Dropped 2 samples	n/a	n/a	n/a	n/a	2	UoHDataOffsetStream
663.538560	0.012000	dropped_samples	2354.045864	Dropped 3 samples	n/a	n/a	n/a	n/a	3	UoHDataOffsetStream
666.731944	0.012000	dropped_samples	2357.239248	Dropped 3 samples	n/a	n/a	n/a	n/a	3	UoHDataOffsetStream
667.190807	0.000000	0_6_1_5	2357.698112	0.6-1.5	n/a	n/a	n/a	n/a	n/a	arithmetic-Markers
670.174338	6.000000	0.6-1.5	2360.681643	0.6-1.5 Correct	1	0.6-1.5	Correct	false	n/a	arithmetic-Markers
676.355914	0.012000	dropped_samples	2366.863219	Dropped 3 samples	n/a	n/a	n/a	n/a	3	UoHDataOffsetStream
676.546343	0.008000	dropped_samples	2367.053647	Dropped 2 samples	n/a	n/a	n/a	n/a	2	UoHDataOffsetStream
676.700221	0.000000	3_3_4_2	2367.207526	3.3-4.2	n/a	n/a	n/a	n/a	n/a	arithmetic-Markers
676.766050	0.008000	dropped_samples	2367.273355	Dropped 2 samples	n/a	n/a	n/a	n/a	2	UoHDataOffsetStream
678.924293	0.004000	dropped_samples	2369.431598	Dropped 1 samples	n/a	n/a	n/a	n/a	1	UoHDataOffsetStream
679.072707	0.008000	dropped_samples	2369.580011	Dropped 2 samples	n/a	n/a	n/a	n/a	2	UoHDataOffsetStream
683.118564	6.000000	3.3-4.2	2373.625869	3.3-4.2 Correct	1	3.3-4.2	Correct	false	n/a	arithmetic-Markers
687.249583	0.004000	dropped_samples	2377.756888	Dropped 1 samples	n/a	n/a	n/a	n/a	1	UoHDataOffsetStream
687.518094	0.004000	dropped_samples	2378.025399	Dropped 1 samples	n/a	n/a	n/a	n/a	1	UoHDataOffsetStream
689.613867	0.000000	3_3_4_2	2380.121172	3.3-4.2	n/a	n/a	n/a	n/a	n/a	arithmetic-Markers
689.651855	0.004000	dropped_samples	2380.159160	Dropped 1 samples	n/a	n/a	n/a	n/a	1	UoHDataOffsetStream
690.994651	0.004000	dropped_samples	2381.501956	Dropped 1 samples	n/a	n/a	n/a	n/a	1	UoHDataOffsetStream
692.698737	0.004000	dropped_samples	2383.206042	Dropped 1 samples	n/a	n/a	n/a	n/a	1	UoHDataOffsetStream
693.445860	0.008000	dropped_samples	2383.953165	Dropped 2 samples	n/a	n/a	n/a	n/a	2	UoHDataOffsetStream
693.973179	0.008000	dropped_samples	2384.480484	Dropped 2 samples	n/a	n/a	n/a	n/a	2	UoHDataOffsetStream
696.731974	0.004000	dropped_samples	2387.239279	Dropped 1 samples	n/a	n/a	n/a	n/a	1	UoHDataOffsetStream
696.995644	0.008000	dropped_samples	2387.502949	Dropped 2 samples	n/a	n/a	n/a	n/a	2	UoHDataOffsetStream
697.598319	6.000000	3.3-4.2	2388.105624	3.3-4.2 Wrong	0	3.3-4.2	Wrong	false	n/a	arithmetic-Markers
697.718277	0.004000	dropped_samples	2388.225582	Dropped 1 samples	n/a	n/a	n/a	n/a	1	UoHDataOffsetStream
698.147960	0.012000	dropped_samples	2388.655264	Dropped 3 samples	n/a	n/a	n/a	n/a	3	UoHDataOffsetStream
698.338670	0.012000	dropped_samples	2388.845975	Dropped 3 samples	n/a	n/a	n/a	n/a	3	UoHDataOffsetStream
699.778835	0.004000	dropped_samples	2390.286140	Dropped 1 samples	n/a	n/a	n/a	n/a	1	UoHDataOffsetStream
702.156750	0.008000	dropped_samples	2392.664055	Dropped 2 samples	n/a	n/a	n/a	n/a	2	UoHDataOffsetStream
702.493691	0.004000	dropped_samples	2393.000996	Dropped 1 samples	n/a	n/a	n/a	n/a	1	UoHDataOffsetStream
704.102561	0.000000	6_0_6_9	2394.609866	6.0-6.9	n/a	n/a	n/a	n/a	n/a	arithmetic-Markers
707.122610	0.004000	dropped_samples	2397.629915	Dropped 1 samples	n/a	n/a	n/a	n/a	1	UoHDataOffsetStream
709.065986	0.004000	dropped_samples	2399.573291	Dropped 1 samples	n/a	n/a	n/a	n/a	1	UoHDataOffsetStream
712.430259	0.012000	dropped_samples	2402.937564	Dropped 3 samples	n/a	n/a	n/a	n/a	3	UoHDataOffsetStream
715.643121	0.012000	dropped_samples	2406.150425	Dropped 3 samples	n/a	n/a	n/a	n/a	3	UoHDataOffsetStream
715.966157	6.000000	6.0-6.9	2406.473461	6.0-6.9 Wrong	0	6.0-6.9	Wrong	false	n/a	arithmetic-Markers
716.390219	0.012000	dropped_samples	2406.897523	Dropped 3 samples	n/a	n/a	n/a	n/a	3	UoHDataOffsetStream
720.491816	0.024000	dropped_samples	2410.999120	Dropped 6 samples	n/a	n/a	n/a	n/a	6	UoHDataOffsetStream
722.342388	0.008000	dropped_samples	2412.849693	Dropped 2 samples	n/a	n/a	n/a	n/a	2	UoHDataOffsetStream
722.484639	0.000000	6_0_6_9	2412.991944	6.0-6.9	n/a	n/a	n/a	n/a	n/a	arithmetic-Markers
727.571975	0.004000	dropped_samples	2418.079280	Dropped 1 samples	n/a	n/a	n/a	n/a	1	UoHDataOffsetStream
730.580378	0.004000	dropped_samples	2421.087682	Dropped 1 samples	n/a	n/a	n/a	n/a	1	UoHDataOffsetStream
731.746787	0.012000	dropped_samples	2422.254092	Dropped 3 samples	n/a	n/a	n/a	n/a	3	UoHDataOffsetStream
733.499616	0.008000	dropped_samples	2424.006921	Dropped 2 samples	n/a	n/a	n/a	n/a	2	UoHDataOffsetStream
733.959539	0.004000	dropped_samples	2424.466844	Dropped 1 samples	n/a	n/a	n/a	n/a	1	UoHDataOffsetStream
735.706702	0.004000	dropped_samples	2426.214007	Dropped 1 samples	n/a	n/a	n/a	n/a	1	UoHDataOffsetStream
737.147083	0.004000	dropped_samples	2427.654388	Dropped 1 samples	n/a	n/a	n/a	n/a	1	UoHDataOffsetStream
740.125669	0.004000	dropped_samples	2430.632974	Dropped 1 samples	n/a	n/a	n/a	n/a	1	UoHDataOffsetStream
740.201475	0.004000	dropped_samples	2430.708780	Dropped 1 samples	n/a	n/a	n/a	n/a	1	UoHDataOffsetStream
741.541679	0.004000	dropped_samples	2432.048983	Dropped 1 samples	n/a	n/a	n/a	n/a	1	UoHDataOffsetStream
742.526402	6.000000	6.0-6.9	2433.033707	6.0-6.9 Wrong	0	6.0-6.9	Wrong	false	n/a	arithmetic-Markers
742.694016	0.004000	dropped_samples	2433.201321	Dropped 1 samples	n/a	n/a	n/a	n/a	1	UoHDataOffsetStream
743.030958	0.008000	dropped_samples	2433.538263	Dropped 2 samples	n/a	n/a	n/a	n/a	2	UoHDataOffsetStream
744.404387	0.004000	dropped_samples	2434.911692	Dropped 1 samples	n/a	n/a	n/a	n/a	1	UoHDataOffsetStream
745.765332	0.004000	dropped_samples	2436.272636	Dropped 1 samples	n/a	n/a	n/a	n/a	1	UoHDataOffsetStream
749.031656	0.000000	3_3_4_2	2439.538961	3.3-4.2	n/a	n/a	n/a	n/a	n/a	arithmetic-Markers
750.753912	0.004000	dropped_samples	2441.261217	Dropped 1 samples	n/a	n/a	n/a	n/a	1	UoHDataOffsetStream
751.283119	0.004000	dropped_samples	2441.790424	Dropped 1 samples	n/a	n/a	n/a	n/a	1	UoHDataOffsetStream
755.819058	0.008000	dropped_samples	2446.326363	Dropped 2 samples	n/a	n/a	n/a	n/a	2	UoHDataOffsetStream
762.230221	0.004000	dropped_samples	2452.737526	Dropped 1 samples	n/a	n/a	n/a	n/a	1	UoHDataOffsetStream
771.041988	0.004000	dropped_samples	2461.549293	Dropped 1 samples	n/a	n/a	n/a	n/a	1	UoHDataOffsetStream
771.063451	0.012000	dropped_samples	2461.570756	Dropped 3 samples	n/a	n/a	n/a	n/a	3	UoHDataOffsetStream
771.423085	0.004000	dropped_samples	2461.930389	Dropped 1 samples	n/a	n/a	n/a	n/a	1	UoHDataOffsetStream
771.683370	0.004000	dropped_samples	2462.190674	Dropped 1 samples	n/a	n/a	n/a	n/a	1	UoHDataOffsetStream
772.077940	6.000000	3.3-4.2	2462.585245	3.3-4.2 Correct	1	3.3-4.2	Correct	false	n/a	arithmetic-Markers
772.669742	0.004000	dropped_samples	2463.177047	Dropped 1 samples	n/a	n/a	n/a	n/a	1	UoHDataOffsetStream
775.091612	0.004000	dropped_samples	2465.598917	Dropped 1 samples	n/a	n/a	n/a	n/a	1	UoHDataOffsetStream
775.550609	0.008000	dropped_samples	2466.057914	Dropped 2 samples	n/a	n/a	n/a	n/a	2	UoHDataOffsetStream
777.347410	0.004000	dropped_samples	2467.854714	Dropped 1 samples	n/a	n/a	n/a	n/a	1	UoHDataOffsetStream
778.260567	0.004000	dropped_samples	2468.767872	Dropped 1 samples	n/a	n/a	n/a	n/a	1	UoHDataOffsetStream
778.565854	0.000000	4_2_5_1	2469.073159	4.2-5.1	n/a	n/a	n/a	n/a	n/a	arithmetic-Markers
780.039954	0.004000	dropped_samples	2470.547259	Dropped 1 samples	n/a	n/a	n/a	n/a	1	UoHDataOffsetStream
780.589622	0.004000	dropped_samples	2471.096927	Dropped 1 samples	n/a	n/a	n/a	n/a	1	UoHDataOffsetStream
780.638481	0.004000	dropped_samples	2471.145786	Dropped 1 samples	n/a	n/a	n/a	n/a	1	UoHDataOffsetStream
784.383639	0.012000	dropped_samples	2474.890944	Dropped 3 samples	n/a	n/a	n/a	n/a	3	UoHDataOffsetStream
786.318097	6.000000	4.2-5.1	2476.825402	4.2-5.1 Correct	1	4.2-5.1	Correct	false	n/a	arithmetic-Markers
787.044838	0.012000	dropped_samples	2477.552143	Dropped 3 samples	n/a	n/a	n/a	n/a	3	UoHDataOffsetStream
792.817288	0.000000	6_0_6_9	2483.324593	6.0-6.9	n/a	n/a	n/a	n/a	n/a	arithmetic-Markers
793.143404	0.004000	dropped_samples	2483.650709	Dropped 1 samples	n/a	n/a	n/a	n/a	1	UoHDataOffsetStream
795.228334	0.008000	dropped_samples	2485.735639	Dropped 2 samples	n/a	n/a	n/a	n/a	2	UoHDataOffsetStream
795.423718	0.004000	dropped_samples	2485.931022	Dropped 1 samples	n/a	n/a	n/a	n/a	1	UoHDataOffsetStream
795.950989	0.004000	dropped_samples	2486.458294	Dropped 1 samples	n/a	n/a	n/a	n/a	1	UoHDataOffsetStream
796.356322	0.004000	dropped_samples	2486.863627	Dropped 1 samples	n/a	n/a	n/a	n/a	1	UoHDataOffsetStream
797.484218	0.004000	dropped_samples	2487.991523	Dropped 1 samples	n/a	n/a	n/a	n/a	1	UoHDataOffsetStream
798.299650	0.012000	dropped_samples	2488.806954	Dropped 3 samples	n/a	n/a	n/a	n/a	3	UoHDataOffsetStream
799.383625	0.004000	dropped_samples	2489.890930	Dropped 1 samples	n/a	n/a	n/a	n/a	1	UoHDataOffsetStream
799.837755	0.012000	dropped_samples	2490.345060	Dropped 3 samples	n/a	n/a	n/a	n/a	3	UoHDataOffsetStream
800.052628	0.008000	dropped_samples	2490.559932	Dropped 2 samples	n/a	n/a	n/a	n/a	2	UoHDataOffsetStream
800.965672	0.004000	dropped_samples	2491.472977	Dropped 1 samples	n/a	n/a	n/a	n/a	1	UoHDataOffsetStream
801.756723	0.008000	dropped_samples	2492.264027	Dropped 2 samples	n/a	n/a	n/a	n/a	2	UoHDataOffsetStream
804.447112	0.004000	dropped_samples	2494.954417	Dropped 1 samples	n/a	n/a	n/a	n/a	1	UoHDataOffsetStream
808.078117	6.000000	6.0-6.9	2498.585422	6.0-6.9 Wrong	0	6.0-6.9	Wrong	false	n/a	arithmetic-Markers
808.885646	0.004000	dropped_samples	2499.392951	Dropped 1 samples	n/a	n/a	n/a	n/a	1	UoHDataOffsetStream
809.823108	0.004000	dropped_samples	2500.330413	Dropped 1 samples	n/a	n/a	n/a	n/a	1	UoHDataOffsetStream
810.038834	0.004000	dropped_samples	2500.546138	Dropped 1 samples	n/a	n/a	n/a	n/a	1	UoHDataOffsetStream
812.127876	0.012000	dropped_samples	2502.635181	Dropped 3 samples	n/a	n/a	n/a	n/a	3	UoHDataOffsetStream
813.011630	0.008000	dropped_samples	2503.518935	Dropped 2 samples	n/a	n/a	n/a	n/a	2	UoHDataOffsetStream
814.584809	0.000000	5_1_6_0	2505.092114	5.1-6.0	n/a	n/a	n/a	n/a	n/a	arithmetic-Markers
815.077083	0.004000	dropped_samples	2505.584388	Dropped 1 samples	n/a	n/a	n/a	n/a	1	UoHDataOffsetStream
816.971615	0.004000	dropped_samples	2507.478920	Dropped 1 samples	n/a	n/a	n/a	n/a	1	UoHDataOffsetStream
819.735261	0.004000	dropped_samples	2510.242566	Dropped 1 samples	n/a	n/a	n/a	n/a	1	UoHDataOffsetStream
820.278160	6.000000	5.1-6.0	2510.785464	5.1-6.0 Wrong	0	5.1-6.0	Wrong	false	n/a	arithmetic-Markers
820.765523	0.004000	dropped_samples	2511.272828	Dropped 1 samples	n/a	n/a	n/a	n/a	1	UoHDataOffsetStream
821.219636	0.004000	dropped_samples	2511.726941	Dropped 1 samples	n/a	n/a	n/a	n/a	1	UoHDataOffsetStream
824.584355	0.004000	dropped_samples	2515.091659	Dropped 1 samples	n/a	n/a	n/a	n/a	1	UoHDataOffsetStream
825.540991	0.004000	dropped_samples	2516.048296	Dropped 1 samples	n/a	n/a	n/a	n/a	1	UoHDataOffsetStream
825.662977	0.004000	dropped_samples	2516.170282	Dropped 1 samples	n/a	n/a	n/a	n/a	1	UoHDataOffsetStream
826.771442	0.000000	1_5_2_4	2517.278747	1.5-2.4	n/a	n/a	n/a	n/a	n/a	arithmetic-Markers
827.079027	0.012000	dropped_samples	2517.586332	Dropped 3 samples	n/a	n/a	n/a	n/a	3	UoHDataOffsetStream
827.246754	0.004000	dropped_samples	2517.754059	Dropped 1 samples	n/a	n/a	n/a	n/a	1	UoHDataOffsetStream
827.582008	0.004000	dropped_samples	2518.089313	Dropped 1 samples	n/a	n/a	n/a	n/a	1	UoHDataOffsetStream
829.878141	6.000000	1.5-2.4	2520.385446	1.5-2.4 Correct	1	1.5-2.4	Correct	false	n/a	arithmetic-Markers
833.148364	0.004000	dropped_samples	2523.655669	Dropped 1 samples	n/a	n/a	n/a	n/a	1	UoHDataOffsetStream
836.394916	0.000000	5_1_6_0	2526.902221	5.1-6.0	n/a	n/a	n/a	n/a	n/a	arithmetic-Markers
839.158658	0.008000	dropped_samples	2529.665963	Dropped 2 samples	n/a	n/a	n/a	n/a	2	UoHDataOffsetStream
840.301760	0.008000	dropped_samples	2530.809065	Dropped 2 samples	n/a	n/a	n/a	n/a	2	UoHDataOffsetStream
840.755836	0.004000	dropped_samples	2531.263141	Dropped 1 samples	n/a	n/a	n/a	n/a	1	UoHDataOffsetStream
844.647438	0.004000	dropped_samples	2535.154743	Dropped 1 samples	n/a	n/a	n/a	n/a	1	UoHDataOffsetStream
846.726367	6.000000	5.1-6.0	2537.233672	5.1-6.0 Wrong	0	5.1-6.0	Wrong	false	n/a	arithmetic-Markers
848.631877	0.004000	dropped_samples	2539.139182	Dropped 1 samples	n/a	n/a	n/a	n/a	1	UoHDataOffsetStream
849.300838	0.004000	dropped_samples	2539.808143	Dropped 1 samples	n/a	n/a	n/a	n/a	1	UoHDataOffsetStream
851.293027	0.004000	dropped_samples	2541.800332	Dropped 1 samples	n/a	n/a	n/a	n/a	1	UoHDataOffsetStream
852.469755	0.008000	dropped_samples	2542.977059	Dropped 2 samples	n/a	n/a	n/a	n/a	2	UoHDataOffsetStream
852.904374	0.008000	dropped_samples	2543.411679	Dropped 2 samples	n/a	n/a	n/a	n/a	2	UoHDataOffsetStream
853.222638	0.000000	2_4_3_3	2543.729943	2.4-3.3	n/a	n/a	n/a	n/a	n/a	arithmetic-Markers
857.318394	0.004000	dropped_samples	2547.825699	Dropped 1 samples	n/a	n/a	n/a	n/a	1	UoHDataOffsetStream
857.391662	0.004000	dropped_samples	2547.898967	Dropped 1 samples	n/a	n/a	n/a	n/a	1	UoHDataOffsetStream
857.854250	6.000000	2.4-3.3	2548.361555	2.4-3.3 Correct	1	2.4-3.3	Correct	false	n/a	arithmetic-Markers
859.144606	0.008000	dropped_samples	2549.651910	Dropped 2 samples	n/a	n/a	n/a	n/a	2	UoHDataOffsetStream
859.647524	0.004000	dropped_samples	2550.154829	Dropped 1 samples	n/a	n/a	n/a	n/a	1	UoHDataOffsetStream
860.052810	0.004000	dropped_samples	2550.560115	Dropped 1 samples	n/a	n/a	n/a	n/a	1	UoHDataOffsetStream
860.580161	0.008000	dropped_samples	2551.087466	Dropped 2 samples	n/a	n/a	n/a	n/a	2	UoHDataOffsetStream
863.006977	0.004000	dropped_samples	2553.514282	Dropped 1 samples	n/a	n/a	n/a	n/a	1	UoHDataOffsetStream
864.252045	0.012000	dropped_samples	2554.759350	Dropped 3 samples	n/a	n/a	n/a	n/a	3	UoHDataOffsetStream
864.352252	0.000000	1_5_2_4	2554.859556	1.5-2.4	n/a	n/a	n/a	n/a	n/a	arithmetic-Markers
869.559792	0.008000	dropped_samples	2560.067097	Dropped 2 samples	n/a	n/a	n/a	n/a	2	UoHDataOffsetStream
869.862385	6.000000	1.5-2.4	2560.369690	1.5-2.4 Correct	1	1.5-2.4	Correct	false	n/a	arithmetic-Markers
870.357495	0.004000	dropped_samples	2560.864800	Dropped 1 samples	n/a	n/a	n/a	n/a	1	UoHDataOffsetStream
871.332090	0.008000	dropped_samples	2561.839395	Dropped 2 samples	n/a	n/a	n/a	n/a	2	UoHDataOffsetStream
871.791344	0.004000	dropped_samples	2562.298649	Dropped 1 samples	n/a	n/a	n/a	n/a	1	UoHDataOffsetStream
873.885529	0.012000	dropped_samples	2564.392834	Dropped 3 samples	n/a	n/a	n/a	n/a	3	UoHDataOffsetStream
876.131929	0.004000	dropped_samples	2566.639233	Dropped 1 samples	n/a	n/a	n/a	n/a	1	UoHDataOffsetStream
876.370075	0.000000	5_1_6_0	2566.877379	5.1-6.0	n/a	n/a	n/a	n/a	n/a	arithmetic-Markers
877.547983	0.004000	dropped_samples	2568.055288	Dropped 1 samples	n/a	n/a	n/a	n/a	1	UoHDataOffsetStream
879.828272	0.004000	dropped_samples	2570.335577	Dropped 1 samples	n/a	n/a	n/a	n/a	1	UoHDataOffsetStream
880.863394	0.004000	dropped_samples	2571.370699	Dropped 1 samples	n/a	n/a	n/a	n/a	1	UoHDataOffsetStream
882.064591	0.004000	dropped_samples	2572.571896	Dropped 1 samples	n/a	n/a	n/a	n/a	1	UoHDataOffsetStream
882.317973	6.000000	5.1-6.0	2572.825278	5.1-6.0 Wrong	0	5.1-6.0	Wrong	false	n/a	arithmetic-Markers
884.847770	0.008000	dropped_samples	2575.355075	Dropped 2 samples	n/a	n/a	n/a	n/a	2	UoHDataOffsetStream
887.030420	0.004000	dropped_samples	2577.537725	Dropped 1 samples	n/a	n/a	n/a	n/a	1	UoHDataOffsetStream
888.789578	0.004000	dropped_samples	2579.296882	Dropped 1 samples	n/a	n/a	n/a	n/a	1	UoHDataOffsetStream
888.818846	0.000000	4_2_5_1	2579.326150	4.2-5.1	n/a	n/a	n/a	n/a	n/a	arithmetic-Markers
890.726718	0.004000	dropped_samples	2581.234023	Dropped 1 samples	n/a	n/a	n/a	n/a	1	UoHDataOffsetStream
892.308766	0.004000	dropped_samples	2582.816071	Dropped 1 samples	n/a	n/a	n/a	n/a	1	UoHDataOffsetStream
893.944564	0.024000	dropped_samples	2584.451869	Dropped 6 samples	n/a	n/a	n/a	n/a	6	UoHDataOffsetStream
898.334174	0.012000	dropped_samples	2588.841479	Dropped 3 samples	n/a	n/a	n/a	n/a	3	UoHDataOffsetStream
898.950181	6.000000	4.2-5.1	2589.457485	4.2-5.1 Correct	1	4.2-5.1	Correct	false	n/a	arithmetic-Markers
903.158352	0.004000	dropped_samples	2593.665657	Dropped 1 samples	n/a	n/a	n/a	n/a	1	UoHDataOffsetStream
905.444459	0.000000	6_0_6_9	2595.951764	6.0-6.9	n/a	n/a	n/a	n/a	n/a	arithmetic-Markers
908.417421	0.004000	dropped_samples	2598.924726	Dropped 1 samples	n/a	n/a	n/a	n/a	1	UoHDataOffsetStream
915.565680	0.008000	dropped_samples	2606.072984	Dropped 2 samples	n/a	n/a	n/a	n/a	2	UoHDataOffsetStream
916.288381	0.004000	dropped_samples	2606.795686	Dropped 1 samples	n/a	n/a	n/a	n/a	1	UoHDataOffsetStream
916.356696	0.004000	dropped_samples	2606.864001	Dropped 1 samples	n/a	n/a	n/a	n/a	1	UoHDataOffsetStream
920.414261	0.004000	dropped_samples	2610.921566	Dropped 1 samples	n/a	n/a	n/a	n/a	1	UoHDataOffsetStream
922.094017	0.004000	dropped_samples	2612.601321	Dropped 1 samples	n/a	n/a	n/a	n/a	1	UoHDataOffsetStream
922.572523	0.008000	dropped_samples	2613.079828	Dropped 2 samples	n/a	n/a	n/a	n/a	2	UoHDataOffsetStream
923.583255	0.004000	dropped_samples	2614.090560	Dropped 1 samples	n/a	n/a	n/a	n/a	1	UoHDataOffsetStream
928.270197	6.000000	6.0-6.9	2618.777502	6.0-6.9 Wrong	0	6.0-6.9	Wrong	false	n/a	arithmetic-Markers
930.087187	0.004000	dropped_samples	2620.594492	Dropped 1 samples	n/a	n/a	n/a	n/a	1	UoHDataOffsetStream
930.555977	0.008000	dropped_samples	2621.063282	Dropped 2 samples	n/a	n/a	n/a	n/a	2	UoHDataOffsetStream
932.686642	0.012000	dropped_samples	2623.193947	Dropped 3 samples	n/a	n/a	n/a	n/a	3	UoHDataOffsetStream
934.773443	0.000000	2_4_3_3	2625.280747	2.4-3.3	n/a	n/a	n/a	n/a	n/a	arithmetic-Markers
935.679707	0.004000	dropped_samples	2626.187012	Dropped 1 samples	n/a	n/a	n/a	n/a	1	UoHDataOffsetStream
936.830398	0.012000	dropped_samples	2627.337703	Dropped 3 samples	n/a	n/a	n/a	n/a	3	UoHDataOffsetStream
938.197586	0.004000	dropped_samples	2628.704891	Dropped 1 samples	n/a	n/a	n/a	n/a	1	UoHDataOffsetStream
939.833328	0.004000	dropped_samples	2630.340632	Dropped 1 samples	n/a	n/a	n/a	n/a	1	UoHDataOffsetStream
940.551061	0.004000	dropped_samples	2631.058366	Dropped 1 samples	n/a	n/a	n/a	n/a	1	UoHDataOffsetStream
942.262197	6.000000	2.4-3.3	2632.769502	2.4-3.3 Wrong	0	2.4-3.3	Wrong	false	n/a	arithmetic-Markers
946.576582	0.004000	dropped_samples	2637.083887	Dropped 1 samples	n/a	n/a	n/a	n/a	1	UoHDataOffsetStream
948.016943	0.004000	dropped_samples	2638.524248	Dropped 1 samples	n/a	n/a	n/a	n/a	1	UoHDataOffsetStream
948.758488	0.000000	4_2_5_1	2639.265793	4.2-5.1	n/a	n/a	n/a	n/a	n/a	arithmetic-Markers
949.457424	0.008000	dropped_samples	2639.964729	Dropped 2 samples	n/a	n/a	n/a	n/a	2	UoHDataOffsetStream
950.272819	0.012000	dropped_samples	2640.780124	Dropped 3 samples	n/a	n/a	n/a	n/a	3	UoHDataOffsetStream
952.191707	0.004000	dropped_samples	2642.699012	Dropped 1 samples	n/a	n/a	n/a	n/a	1	UoHDataOffsetStream
952.577503	0.004000	dropped_samples	2643.084808	Dropped 1 samples	n/a	n/a	n/a	n/a	1	UoHDataOffsetStream
953.886251	6.000000	4.2-5.1	2644.393556	4.2-5.1 Wrong	0	4.2-5.1	Wrong	false	n/a	arithmetic-Markers
957.015982	0.004000	dropped_samples	2647.523287	Dropped 1 samples	n/a	n/a	n/a	n/a	1	UoHDataOffsetStream
959.958251	0.004000	dropped_samples	2650.465556	Dropped 1 samples	n/a	n/a	n/a	n/a	1	UoHDataOffsetStream
960.380665	0.000000	5_1_6_0	2650.887970	5.1-6.0	n/a	n/a	n/a	n/a	n/a	arithmetic-Markers
962.221098	0.012000	dropped_samples	2652.728403	Dropped 3 samples	n/a	n/a	n/a	n/a	3	UoHDataOffsetStream
967.933999	0.008000	dropped_samples	2658.441303	Dropped 2 samples	n/a	n/a	n/a	n/a	2	UoHDataOffsetStream
969.301163	0.008000	dropped_samples	2659.808468	Dropped 2 samples	n/a	n/a	n/a	n/a	2	UoHDataOffsetStream
971.502029	6.000000	5.1-6.0	2662.009333	5.1-6.0 Wrong	0	5.1-6.0	Wrong	false	n/a	arithmetic-Markers
974.848089	0.004000	dropped_samples	2665.355393	Dropped 1 samples	n/a	n/a	n/a	n/a	1	UoHDataOffsetStream
978.003532	0.000000	2_4_3_3	2668.510836	2.4-3.3	n/a	n/a	n/a	n/a	n/a	arithmetic-Markers
982.430257	6.000000	2.4-3.3	2672.937562	2.4-3.3 Correct	1	2.4-3.3	Correct	false	n/a	arithmetic-Markers
982.528761	0.008000	dropped_samples	2673.036066	Dropped 2 samples	n/a	n/a	n/a	n/a	2	UoHDataOffsetStream
982.602011	0.004000	dropped_samples	2673.109316	Dropped 1 samples	n/a	n/a	n/a	n/a	1	UoHDataOffsetStream
986.005390	0.012000	dropped_samples	2676.512695	Dropped 3 samples	n/a	n/a	n/a	n/a	3	UoHDataOffsetStream
987.997538	0.004000	dropped_samples	2678.504843	Dropped 1 samples	n/a	n/a	n/a	n/a	1	UoHDataOffsetStream
988.940717	0.000000	2_4_3_3	2679.448022	2.4-3.3	n/a	n/a	n/a	n/a	n/a	arithmetic-Markers
997.014149	6.000000	2.4-3.3	2687.521454	2.4-3.3 Wrong	0	2.4-3.3	Wrong	false	n/a	arithmetic-Markers
1001.991693	0.004000	dropped_samples	2692.498998	Dropped 1 samples	n/a	n/a	n/a	n/a	1	UoHDataOffsetStream
1002.904783	0.004000	dropped_samples	2693.412088	Dropped 1 samples	n/a	n/a	n/a	n/a	1	UoHDataOffsetStream
1003.518524	0.000000	2_4_3_3	2694.025828	2.4-3.3	n/a	n/a	n/a	n/a	n/a	arithmetic-Markers
1007.398394	6.000000	2.4-3.3	2697.905699	2.4-3.3 Correct	1	2.4-3.3	Correct	false	n/a	arithmetic-Markers
1008.446817	0.008000	dropped_samples	2698.954122	Dropped 2 samples	n/a	n/a	n/a	n/a	2	UoHDataOffsetStream
1010.077685	0.004000	dropped_samples	2700.584990	Dropped 1 samples	n/a	n/a	n/a	n/a	1	UoHDataOffsetStream
1013.896856	0.000000	1_5_2_4	2704.404161	1.5-2.4	n/a	n/a	n/a	n/a	n/a	arithmetic-Markers
1016.181943	6.000000	1.5-2.4	2706.689248	1.5-2.4 Correct	1	1.5-2.4	Correct	false	n/a	arithmetic-Markers
1021.625826	0.004000	dropped_samples	2712.133131	Dropped 1 samples	n/a	n/a	n/a	n/a	1	UoHDataOffsetStream
1022.694805	0.000000	5_1_6_0	2713.202110	5.1-6.0	n/a	n/a	n/a	n/a	n/a	arithmetic-Markers
1023.422675	0.004000	dropped_samples	2713.929980	Dropped 1 samples	n/a	n/a	n/a	n/a	1	UoHDataOffsetStream
1024.286720	0.004000	dropped_samples	2714.794025	Dropped 1 samples	n/a	n/a	n/a	n/a	1	UoHDataOffsetStream
1024.814073	0.012000	dropped_samples	2715.321378	Dropped 3 samples	n/a	n/a	n/a	n/a	3	UoHDataOffsetStream
1026.278870	0.004000	dropped_samples	2716.786175	Dropped 1 samples	n/a	n/a	n/a	n/a	1	UoHDataOffsetStream
1027.966117	6.000000	5.1-6.0	2718.473422	5.1-6.0 Wrong	0	5.1-6.0	Wrong	false	n/a	arithmetic-Markers
1029.110915	0.012000	dropped_samples	2719.618220	Dropped 3 samples	n/a	n/a	n/a	n/a	3	UoHDataOffsetStream
1030.146141	0.004000	dropped_samples	2720.653446	Dropped 1 samples	n/a	n/a	n/a	n/a	1	UoHDataOffsetStream
1031.176342	0.004000	dropped_samples	2721.683647	Dropped 1 samples	n/a	n/a	n/a	n/a	1	UoHDataOffsetStream
1034.483468	0.000000	4_2_5_1	2724.990772	4.2-5.1	n/a	n/a	n/a	n/a	n/a	arithmetic-Markers
1035.522159	0.012000	dropped_samples	2726.029464	Dropped 3 samples	n/a	n/a	n/a	n/a	3	UoHDataOffsetStream
1037.104150	0.012000	dropped_samples	2727.611454	Dropped 3 samples	n/a	n/a	n/a	n/a	3	UoHDataOffsetStream
1038.617811	0.012000	dropped_samples	2729.125116	Dropped 3 samples	n/a	n/a	n/a	n/a	3	UoHDataOffsetStream
1040.082660	0.004000	dropped_samples	2730.589965	Dropped 1 samples	n/a	n/a	n/a	n/a	1	UoHDataOffsetStream
1042.934228	0.004000	dropped_samples	2733.441532	Dropped 1 samples	n/a	n/a	n/a	n/a	1	UoHDataOffsetStream
1044.570214	0.008000	dropped_samples	2735.077519	Dropped 2 samples	n/a	n/a	n/a	n/a	2	UoHDataOffsetStream
1044.726051	6.000000	4.2-5.1	2735.233355	4.2-5.1 Correct	1	4.2-5.1	Correct	false	n/a	arithmetic-Markers
1047.016274	0.004000	dropped_samples	2737.523579	Dropped 1 samples	n/a	n/a	n/a	n/a	1	UoHDataOffsetStream
1047.496948	0.004000	dropped_samples	2738.004253	Dropped 1 samples	n/a	n/a	n/a	n/a	1	UoHDataOffsetStream
1051.222285	0.000000	4_2_5_1	2741.729590	4.2-5.1	n/a	n/a	n/a	n/a	n/a	arithmetic-Markers
1053.256560	0.008000	dropped_samples	2743.763864	Dropped 2 samples	n/a	n/a	n/a	n/a	2	UoHDataOffsetStream
1053.446955	0.004000	dropped_samples	2743.954260	Dropped 1 samples	n/a	n/a	n/a	n/a	1	UoHDataOffsetStream
1054.311180	0.004000	dropped_samples	2744.818485	Dropped 1 samples	n/a	n/a	n/a	n/a	1	UoHDataOffsetStream
1054.506674	0.012000	dropped_samples	2745.013979	Dropped 3 samples	n/a	n/a	n/a	n/a	3	UoHDataOffsetStream
1055.776112	0.004000	dropped_samples	2746.283416	Dropped 1 samples	n/a	n/a	n/a	n/a	1	UoHDataOffsetStream
1055.873724	0.004000	dropped_samples	2746.381029	Dropped 1 samples	n/a	n/a	n/a	n/a	1	UoHDataOffsetStream
1057.094427	0.004000	dropped_samples	2747.601732	Dropped 1 samples	n/a	n/a	n/a	n/a	1	UoHDataOffsetStream
1058.559277	0.004000	dropped_samples	2749.066581	Dropped 1 samples	n/a	n/a	n/a	n/a	1	UoHDataOffsetStream
1060.864157	0.012000	dropped_samples	2751.371461	Dropped 3 samples	n/a	n/a	n/a	n/a	3	UoHDataOffsetStream
1061.322972	0.004000	dropped_samples	2751.830276	Dropped 1 samples	n/a	n/a	n/a	n/a	1	UoHDataOffsetStream
1066.215552	0.004000	dropped_samples	2756.722857	Dropped 1 samples	n/a	n/a	n/a	n/a	1	UoHDataOffsetStream
1073.442127	0.004000	dropped_samples	2763.949432	Dropped 1 samples	n/a	n/a	n/a	n/a	1	UoHDataOffsetStream
1074.854102	6.000000	4.2-5.1	2765.361407	4.2-5.1 Wrong	0	4.2-5.1	Wrong	false	n/a	arithmetic-Markers
1076.728338	0.004000	dropped_samples	2767.235643	Dropped 1 samples	n/a	n/a	n/a	n/a	1	UoHDataOffsetStream
1077.353311	0.004000	dropped_samples	2767.860616	Dropped 1 samples	n/a	n/a	n/a	n/a	1	UoHDataOffsetStream
1079.706762	0.004000	dropped_samples	2770.214066	Dropped 1 samples	n/a	n/a	n/a	n/a	1	UoHDataOffsetStream
1081.191164	0.004000	dropped_samples	2771.698469	Dropped 1 samples	n/a	n/a	n/a	n/a	1	UoHDataOffsetStream
1081.348902	0.000000	5_1_6_0	2771.856206	5.1-6.0	n/a	n/a	n/a	n/a	n/a	arithmetic-Markers
1082.826912	0.004000	dropped_samples	2773.334217	Dropped 1 samples	n/a	n/a	n/a	n/a	1	UoHDataOffsetStream
1084.360153	0.004000	dropped_samples	2774.867458	Dropped 1 samples	n/a	n/a	n/a	n/a	1	UoHDataOffsetStream
1084.887567	0.004000	dropped_samples	2775.394871	Dropped 1 samples	n/a	n/a	n/a	n/a	1	UoHDataOffsetStream
1087.216619	0.004000	dropped_samples	2777.723924	Dropped 1 samples	n/a	n/a	n/a	n/a	1	UoHDataOffsetStream
1088.105271	0.004000	dropped_samples	2778.612575	Dropped 1 samples	n/a	n/a	n/a	n/a	1	UoHDataOffsetStream
1089.233226	0.012000	dropped_samples	2779.740530	Dropped 3 samples	n/a	n/a	n/a	n/a	3	UoHDataOffsetStream
1090.286319	6.000000	5.1-6.0	2780.793624	5.1-6.0 Wrong	0	5.1-6.0	Wrong	false	n/a	arithmetic-Markers
1090.502747	0.004000	dropped_samples	2781.010052	Dropped 1 samples	n/a	n/a	n/a	n/a	1	UoHDataOffsetStream
1093.696101	0.004000	dropped_samples	2784.203406	Dropped 1 samples	n/a	n/a	n/a	n/a	1	UoHDataOffsetStream
1094.008615	0.008000	dropped_samples	2784.515919	Dropped 2 samples	n/a	n/a	n/a	n/a	2	UoHDataOffsetStream
1095.927738	0.004000	dropped_samples	2786.435043	Dropped 1 samples	n/a	n/a	n/a	n/a	1	UoHDataOffsetStream
1096.804415	0.000000	1_5_2_4	2787.311720	1.5-2.4	n/a	n/a	n/a	n/a	n/a	arithmetic-Markers
1097.927512	6.000000	1.5-2.4	2788.434816	1.5-2.4 Correct	1	1.5-2.4	Correct	false	n/a	arithmetic-Markers
1099.697159	0.004000	dropped_samples	2790.204463	Dropped 1 samples	n/a	n/a	n/a	n/a	1	UoHDataOffsetStream
1100.488082	0.004000	dropped_samples	2790.995387	Dropped 1 samples	n/a	n/a	n/a	n/a	1	UoHDataOffsetStream
1104.426338	0.000000	4_2_5_1	2794.933643	4.2-5.1	n/a	n/a	n/a	n/a	n/a	arithmetic-Markers
1104.448169	0.008000	dropped_samples	2794.955473	Dropped 2 samples	n/a	n/a	n/a	n/a	2	UoHDataOffsetStream
1106.752760	0.008000	dropped_samples	2797.260064	Dropped 2 samples	n/a	n/a	n/a	n/a	2	UoHDataOffsetStream
1108.033196	0.004000	dropped_samples	2798.540501	Dropped 1 samples	n/a	n/a	n/a	n/a	1	UoHDataOffsetStream
1108.071128	0.012000	dropped_samples	2798.578433	Dropped 3 samples	n/a	n/a	n/a	n/a	3	UoHDataOffsetStream
1114.794831	0.008000	dropped_samples	2805.302136	Dropped 2 samples	n/a	n/a	n/a	n/a	2	UoHDataOffsetStream
1115.058484	0.008000	dropped_samples	2805.565789	Dropped 2 samples	n/a	n/a	n/a	n/a	2	UoHDataOffsetStream
1115.782850	6.000000	4.2-5.1	2806.290155	4.2-5.1 Wrong	0	4.2-5.1	Wrong	false	n/a	arithmetic-Markers
1116.953045	0.012000	dropped_samples	2807.460350	Dropped 3 samples	n/a	n/a	n/a	n/a	3	UoHDataOffsetStream
1117.001869	0.004000	dropped_samples	2807.509174	Dropped 1 samples	n/a	n/a	n/a	n/a	1	UoHDataOffsetStream
1117.480387	0.004000	dropped_samples	2807.987691	Dropped 1 samples	n/a	n/a	n/a	n/a	1	UoHDataOffsetStream
1119.448217	0.004000	dropped_samples	2809.955522	Dropped 1 samples	n/a	n/a	n/a	n/a	1	UoHDataOffsetStream
1122.286030	0.000000	1_5_2_4	2812.793335	1.5-2.4	n/a	n/a	n/a	n/a	n/a	arithmetic-Markers
1122.783155	0.004000	dropped_samples	2813.290460	Dropped 1 samples	n/a	n/a	n/a	n/a	1	UoHDataOffsetStream
1123.315369	0.012000	dropped_samples	2813.822674	Dropped 3 samples	n/a	n/a	n/a	n/a	3	UoHDataOffsetStream
1123.542138	6.000000	1.5-2.4	2814.049443	1.5-2.4 Correct	1	1.5-2.4	Correct	false	n/a	arithmetic-Markers
1124.043074	0.000000	finished_arithmetic	2814.550379	Finished Arithmetic	n/a	n/a	n/a	n/a	n/a	arithmetic-Markers
1125.615125	0.004000	dropped_samples	2816.122430	Dropped 1 samples	n/a	n/a	n/a	n/a	1	UoHDataOffsetStream
1129.985317	0.012000	dropped_samples	2820.492622	Dropped 3 samples	n/a	n/a	n/a	n/a	3	UoHDataOffsetStream
1130.660512	0.008000	dropped_samples	2821.167817	Dropped 2 samples	n/a	n/a	n/a	n/a	2	UoHDataOffsetStream
1132.456016	0.004000	dropped_samples	2822.963321	Dropped 1 samples	n/a	n/a	n/a	n/a	1	UoHDataOffsetStream
1134.379825	0.004000	dropped_samples	2824.887129	Dropped 1 samples	n/a	n/a	n/a	n/a	1	UoHDataOffsetStream
1135.755324	0.004000	dropped_samples	2826.262628	Dropped 1 samples	n/a	n/a	n/a	n/a	1	UoHDataOffsetStream
1137.016614	0.004000	dropped_samples	2827.523919	Dropped 1 samples	n/a	n/a	n/a	n/a	1	UoHDataOffsetStream
